Tiempo,AccX,AccY,AccZ,GiroY,KalmanGiroY,Pitch,KalmanPitch
10.3,328.0,7224.0,12852.0,1.72,0.07,-29.34,-29.0
10.36,356.0,7088.0,12432.0,1.73,0.05,-29.69,-29.06
10.43,252.0,7484.0,13860.0,1.71,-0.02,-28.37,-28.99
10.49,248.0,7416.0,13432.0,1.55,-0.12,-28.9,-28.99
10.55,392.0,7460.0,13492.0,1.57,-0.09,-28.94,-28.99
10.62,240.0,7492.0,13308.0,1.53,-0.13,-29.38,-29.04
10.68,276.0,7460.0,13396.0,1.49,-0.2,-29.11,-29.06
10.74,264.0,7436.0,13376.0,1.53,-0.16,-29.07,-29.07
10.8,456.0,7436.0,13216.0,1.57,-0.12,-29.36,-29.11
10.87,284.0,7248.0,13240.0,1.54,-0.18,-28.7,-29.07
10.93,308.0,7280.0,13208.0,1.63,-0.05,-28.86,-29.05
10.99,356.0,7324.0,13112.0,1.63,-0.04,-29.19,-29.07
11.06,312.0,7412.0,13332.0,1.64,-0.04,-29.07,-29.07
11.12,308.0,7224.0,13084.0,1.81,0.13,-28.9,-29.05
11.18,356.0,7404.0,13184.0,1.6,-0.07,-29.32,-29.08
11.25,348.0,7364.0,13180.0,1.51,-0.18,-29.19,-29.1
11.31,376.0,7312.0,13280.0,1.6,-0.09,-28.84,-29.08
11.37,252.0,7356.0,13368.0,1.51,-0.16,-28.82,-29.06
11.44,340.0,7408.0,13216.0,1.53,-0.12,-29.27,-29.09
11.5,280.0,7420.0,13184.0,1.6,-0.07,-29.37,-29.12
11.56,232.0,7312.0,13364.0,1.61,-0.08,-28.68,-29.08
11.62,320.0,7220.0,13188.0,1.66,0.01,-28.7,-29.04
11.69,380.0,7312.0,13104.0,1.69,0.06,-29.16,-29.05
11.75,248.0,7348.0,13276.0,1.71,0.07,-28.96,-29.04
11.81,320.0,7220.0,13232.0,1.45,-0.18,-28.62,-29.01
11.87,256.0,7352.0,13164.0,1.58,-0.02,-29.18,-29.02
11.94,144.0,7292.0,13260.0,1.69,0.07,-28.81,-29.0
12.0,356.0,7264.0,13288.0,1.53,-0.06,-28.66,-28.97
12.06,376.0,7368.0,13368.0,1.53,-0.04,-28.86,-28.96
12.13,220.0,7304.0,13348.0,1.63,0.07,-28.69,-28.93
12.19,436.0,7340.0,13152.0,1.55,0.01,-29.17,-28.95
12.25,364.0,7364.0,13292.0,1.49,-0.07,-28.99,-28.96
12.31,428.0,7268.0,13224.0,1.69,0.12,-28.79,-28.93
12.37,372.0,7284.0,13032.0,1.69,0.13,-29.2,-28.95
12.44,296.0,7276.0,12992.0,1.51,-0.06,-29.25,-28.99
12.5,336.0,7312.0,13140.0,1.73,0.13,-29.09,-28.99
12.56,352.0,7368.0,13276.0,1.65,0.05,-29.03,-28.99
12.62,304.0,7264.0,13344.0,1.58,-0.03,-28.56,-28.95
12.69,352.0,7328.0,13360.0,1.68,0.11,-28.74,-28.92
12.75,268.0,7396.0,13400.0,1.64,0.08,-28.9,-28.92
12.81,380.0,7428.0,13496.0,1.68,0.12,-28.83,-28.9
12.87,312.0,7352.0,13308.0,1.63,0.08,-28.92,-28.9
12.94,256.0,7484.0,13276.0,1.6,0.05,-29.41,-28.95
13.0,388.0,7264.0,13212.0,1.53,-0.06,-28.8,-28.94
13.06,284.0,7288.0,13064.0,1.56,-0.02,-29.16,-28.96
13.12,304.0,7308.0,13220.0,1.56,-0.04,-28.93,-28.96
13.19,296.0,7456.0,13348.0,1.66,0.07,-29.19,-28.98
13.25,360.0,7284.0,13280.0,1.54,-0.07,-28.74,-28.96
13.31,264.0,7552.0,13272.0,1.57,-0.02,-29.64,-29.03
13.38,360.0,7384.0,13380.0,1.67,0.03,-28.89,-29.01
13.44,276.0,7380.0,13336.0,1.7,0.07,-28.96,-29.01
13.5,372.0,7328.0,13340.0,1.54,-0.09,-28.78,-28.99
13.56,232.0,7264.0,13152.0,1.74,0.13,-28.91,-28.97
13.62,316.0,7368.0,13176.0,1.65,0.04,-29.21,-28.99
13.69,352.0,7388.0,13116.0,1.75,0.12,-29.39,-29.03
13.75,344.0,7248.0,13332.0,1.6,-0.06,-28.53,-28.98
13.81,420.0,7276.0,13172.0,1.52,-0.1,-28.92,-28.98
13.88,384.0,7420.0,13276.0,1.5,-0.12,-29.2,-29.01
13.94,176.0,7348.0,13320.0,1.53,-0.1,-28.88,-29.0
14.0,320.0,7396.0,13220.0,1.48,-0.14,-29.23,-29.03
14.06,388.0,7344.0,13236.0,1.6,-0.04,-29.02,-29.03
14.13,348.0,7420.0,13380.0,1.63,-0.01,-29.01,-29.03
14.19,224.0,7424.0,13320.0,1.6,-0.03,-29.13,-29.05
14.25,292.0,7432.0,13236.0,1.58,-0.06,-29.31,-29.08
14.32,340.0,7444.0,13328.0,1.47,-0.2,-29.18,-29.1
14.38,372.0,7376.0,13224.0,1.62,-0.05,-29.15,-29.11
14.44,268.0,7364.0,13156.0,1.64,-0.03,-29.24,-29.12
14.51,336.0,7372.0,13260.0,1.66,-0.02,-29.07,-29.12
14.57,428.0,7256.0,13280.0,1.52,-0.16,-28.65,-29.08
14.63,228.0,7320.0,13008.0,1.63,-0.01,-29.37,-29.11
14.7,336.0,7336.0,13156.0,1.53,-0.13,-29.14,-29.12
14.76,368.0,7324.0,13256.0,1.71,0.04,-28.92,-29.1
14.82,364.0,7420.0,13456.0,1.68,0.03,-28.87,-29.07
14.88,260.0,7360.0,13324.0,1.47,-0.16,-28.92,-29.06
14.95,364.0,7392.0,13516.0,1.64,0.02,-28.67,-29.02
15.01,264.0,7420.0,13340.0,1.66,0.07,-29.08,-29.03
15.07,304.0,7344.0,13336.0,1.73,0.14,-28.84,-29.0
15.13,352.0,7288.0,13352.0,1.7,0.12,-28.63,-28.95
15.19,316.0,7256.0,13184.0,1.69,0.13,-28.83,-28.93
15.26,304.0,7280.0,13300.0,1.74,0.19,-28.69,-28.9
15.32,260.0,7384.0,13324.0,1.56,0.03,-28.99,-28.91
15.38,352.0,7360.0,13288.0,1.62,0.08,-28.98,-28.91
15.44,248.0,7320.0,13252.0,1.74,0.2,-28.91,-28.9
15.51,376.0,7392.0,13272.0,1.69,0.15,-29.12,-28.91
15.57,316.0,7348.0,13208.0,1.69,0.12,-29.09,-28.92
15.63,336.0,7380.0,13280.0,1.69,0.11,-29.06,-28.93
15.69,348.0,7304.0,13200.0,1.65,0.06,-28.96,-28.93
15.75,320.0,7320.0,13180.0,1.66,0.07,-29.05,-28.94
15.82,392.0,7276.0,13216.0,1.54,-0.06,-28.83,-28.93
15.88,324.0,7308.0,13408.0,1.59,-0.0,-28.59,-28.9
15.94,328.0,7344.0,13196.0,1.55,-0.02,-29.1,-28.92
16.01,424.0,7380.0,13344.0,1.56,-0.02,-28.95,-28.92
16.07,344.0,7276.0,13272.0,1.56,-0.02,-28.73,-28.9
16.13,212.0,7532.0,13356.0,1.48,-0.09,-29.42,-28.96
16.19,332.0,7356.0,13420.0,1.67,0.07,-28.73,-28.93
16.26,296.0,7376.0,13232.0,1.7,0.11,-29.14,-28.95
16.32,304.0,7296.0,13272.0,1.71,0.11,-28.8,-28.93
16.38,424.0,7452.0,13140.0,1.63,0.03,-29.56,-28.99
16.44,332.0,7352.0,13164.0,1.6,-0.05,-29.18,-29.01
16.51,256.0,7368.0,13192.0,1.67,0.02,-29.18,-29.03
16.57,412.0,7388.0,13348.0,1.67,0.0,-28.96,-29.02
16.63,388.0,7380.0,13440.0,1.53,-0.13,-28.77,-29.0
16.69,408.0,7376.0,13304.0,1.63,-0.02,-29.0,-29.01
16.76,284.0,7464.0,13212.0,1.6,-0.05,-29.46,-29.06
16.82,244.0,7384.0,13208.0,1.52,-0.16,-29.21,-29.08
16.88,296.0,7444.0,13260.0,1.64,-0.05,-29.31,-29.11
16.95,296.0,7316.0,13232.0,1.63,-0.08,-28.94,-29.09
17.01,320.0,7296.0,13256.0,1.66,-0.04,-28.83,-29.07
17.07,364.0,7356.0,13336.0,1.47,-0.21,-28.88,-29.06
17.14,184.0,7276.0,13184.0,1.54,-0.11,-28.89,-29.05
17.2,432.0,7340.0,13128.0,1.53,-0.11,-29.21,-29.07
17.26,320.0,7356.0,13280.0,1.63,-0.03,-28.98,-29.06
17.32,260.0,7372.0,13256.0,1.53,-0.11,-29.08,-29.07
17.39,272.0,7396.0,13256.0,1.59,-0.06,-29.16,-29.09
17.45,336.0,7336.0,13264.0,1.54,-0.11,-28.95,-29.08
17.51,168.0,7368.0,13268.0,1.68,0.04,-29.04,-29.07
17.58,360.0,7344.0,13484.0,1.65,0.01,-28.57,-29.02
17.64,248.0,7384.0,13304.0,1.72,0.11,-29.03,-29.01
17.7,264.0,7372.0,13264.0,1.7,0.1,-29.06,-29.01
17.76,352.0,7372.0,13280.0,1.63,0.02,-29.04,-29.02
17.82,332.0,7284.0,13216.0,1.61,-0.0,-28.86,-29.0
17.89,496.0,7272.0,13208.0,1.54,-0.06,-28.84,-28.99
17.95,392.0,7352.0,13296.0,1.52,-0.07,-28.94,-28.98
18.01,360.0,7176.0,13076.0,1.68,0.1,-28.76,-28.96
18.08,380.0,7388.0,13328.0,1.56,-0.0,-29.0,-28.96
18.14,252.0,7560.0,13432.0,1.67,0.1,-29.37,-29.0
18.2,260.0,7508.0,13420.0,1.66,0.05,-29.23,-29.02
18.26,328.0,7472.0,13288.0,1.45,-0.17,-29.35,-29.06
18.33,312.0,7480.0,13336.0,1.63,-0.01,-29.29,-29.09
18.39,332.0,7292.0,13172.0,1.5,-0.16,-28.97,-29.08
18.45,424.0,7256.0,13272.0,1.57,-0.08,-28.67,-29.04
18.52,428.0,7300.0,13372.0,1.57,-0.05,-28.63,-29.0
18.58,268.0,7420.0,13024.0,1.53,-0.06,-29.67,-29.08
18.64,348.0,7404.0,13128.0,1.61,-0.03,-29.42,-29.11
18.71,356.0,7296.0,13188.0,1.56,-0.1,-28.95,-29.1
18.77,400.0,7320.0,13276.0,1.55,-0.1,-28.87,-29.08
18.83,344.0,7364.0,13308.0,1.58,-0.05,-28.96,-29.07
18.89,280.0,7424.0,13440.0,1.64,0.02,-28.92,-29.06
18.96,340.0,7360.0,13448.0,1.67,0.06,-28.69,-29.02
19.02,236.0,7372.0,13400.0,1.56,-0.03,-28.82,-29.0
19.08,292.0,7288.0,13336.0,1.65,0.08,-28.66,-28.96
19.14,276.0,7424.0,13300.0,1.69,0.14,-29.17,-28.97
19.21,324.0,7392.0,13304.0,1.6,0.03,-29.06,-28.98
19.27,464.0,7392.0,13208.0,1.59,0.02,-29.23,-29.0
19.33,176.0,7340.0,13324.0,1.72,0.13,-28.85,-28.98
19.39,400.0,7344.0,13368.0,1.46,-0.12,-28.78,-28.97
19.46,248.0,7272.0,13180.0,1.6,0.03,-28.89,-28.96
19.52,284.0,7384.0,13196.0,1.61,0.06,-29.23,-28.98
19.58,348.0,7404.0,13168.0,1.67,0.1,-29.35,-29.01
19.64,400.0,7368.0,13240.0,1.62,0.01,-29.1,-29.02
19.7,400.0,7368.0,13152.0,1.49,-0.12,-29.26,-29.05
19.77,348.0,7340.0,13284.0,1.64,0.01,-28.92,-29.04
19.83,444.0,7276.0,13220.0,1.6,-0.01,-28.83,-29.02
19.89,360.0,7384.0,13240.0,1.65,0.05,-29.15,-29.03
19.95,380.0,7336.0,13248.0,1.78,0.17,-28.98,-29.01
20.02,328.0,7368.0,13148.0,1.57,-0.04,-29.27,-29.04
20.08,296.0,7312.0,13160.0,1.6,-0.03,-29.06,-29.05
20.14,220.0,7320.0,13288.0,1.6,-0.02,-28.85,-29.03
20.21,304.0,7352.0,13284.0,1.67,0.06,-28.96,-29.02
20.27,304.0,7328.0,13240.0,1.55,-0.06,-28.96,-29.01
20.33,180.0,7360.0,13252.0,1.56,-0.05,-29.05,-29.02
20.39,324.0,7432.0,13288.0,1.51,-0.1,-29.22,-29.05
20.46,480.0,7380.0,13192.0,1.6,-0.02,-29.22,-29.07
20.52,320.0,7380.0,13336.0,1.6,-0.03,-28.96,-29.06
20.58,200.0,7288.0,13264.0,1.48,-0.15,-28.79,-29.04
20.65,384.0,7404.0,13232.0,1.67,0.07,-29.23,-29.05
20.71,396.0,7408.0,13352.0,1.79,0.17,-29.02,-29.04
20.77,312.0,7300.0,13348.0,1.61,-0.01,-28.67,-29.0
20.83,416.0,7372.0,13220.0,1.55,-0.04,-29.15,-29.02
20.9,404.0,7468.0,13428.0,1.64,0.04,-29.08,-29.02
20.96,336.0,7424.0,13400.0,1.68,0.07,-28.99,-29.02
21.02,436.0,7300.0,13296.0,1.51,-0.09,-28.77,-29.0
21.08,440.0,7284.0,13184.0,1.71,0.12,-28.92,-28.98
21.15,368.0,7352.0,13184.0,1.66,0.08,-29.15,-28.99
21.21,300.0,7276.0,13176.0,1.61,0.02,-28.91,-28.98
21.27,356.0,7348.0,13320.0,1.55,-0.04,-28.88,-28.98
21.33,352.0,7308.0,13148.0,1.53,-0.05,-29.07,-28.99
21.4,356.0,7428.0,13152.0,1.51,-0.07,-29.46,-29.04
21.46,308.0,7344.0,13292.0,1.48,-0.14,-28.92,-29.04
21.52,460.0,7232.0,13364.0,1.6,-0.01,-28.42,-28.97
21.59,396.0,7292.0,13284.0,1.69,0.12,-28.76,-28.94
21.65,296.0,7404.0,13328.0,1.71,0.16,-29.05,-28.95
21.71,404.0,7428.0,13120.0,1.58,0.02,-29.52,-29.0
21.77,140.0,7356.0,13356.0,1.66,0.06,-28.84,-28.98
21.83,396.0,7324.0,13112.0,1.48,-0.11,-29.19,-29.01
21.9,324.0,7380.0,13284.0,1.54,-0.06,-29.05,-29.02
21.96,264.0,7252.0,13304.0,1.56,-0.04,-28.59,-28.98
22.02,276.0,7292.0,13092.0,1.53,-0.05,-29.12,-29.0
22.09,364.0,7384.0,13208.0,1.57,-0.01,-29.21,-29.02
22.15,344.0,7504.0,13172.0,1.58,-0.02,-29.67,-29.09
22.21,264.0,7452.0,13316.0,1.61,-0.04,-29.23,-29.1
22.28,372.0,7328.0,13388.0,1.54,-0.12,-28.69,-29.07
22.34,316.0,7464.0,13380.0,1.67,0.04,-29.15,-29.07
22.4,308.0,7292.0,13104.0,1.54,-0.09,-29.09,-29.08
22.47,340.0,7316.0,13220.0,1.56,-0.08,-28.96,-29.07
22.53,316.0,7428.0,13072.0,1.62,-0.01,-29.61,-29.13
22.59,300.0,7372.0,13316.0,1.62,-0.05,-28.97,-29.12
22.65,228.0,7292.0,13192.0,1.62,-0.04,-28.93,-29.1
22.72,308.0,7344.0,13204.0,1.47,-0.17,-29.08,-29.11
22.78,388.0,7380.0,13396.0,1.5,-0.13,-28.85,-29.09
22.84,340.0,7332.0,13284.0,1.58,-0.04,-28.9,-29.07
22.91,264.0,7432.0,13244.0,1.66,0.06,-29.3,-29.09
22.97,240.0,7436.0,13408.0,1.59,-0.03,-29.01,-29.08
23.03,360.0,7356.0,13312.0,1.59,-0.03,-28.92,-29.07
23.1,296.0,7456.0,13180.0,1.63,0.03,-29.5,-29.11
23.16,260.0,7484.0,13324.0,1.81,0.17,-29.32,-29.12
23.22,316.0,7236.0,13120.0,1.7,0.05,-28.88,-29.1
23.28,448.0,7364.0,13136.0,1.63,-0.01,-29.27,-29.11
23.34,292.0,7420.0,13296.0,1.69,0.04,-29.16,-29.12
23.41,328.0,7328.0,13300.0,1.66,0.0,-28.85,-29.09
23.47,376.0,7460.0,13360.0,1.63,0.0,-29.18,-29.1
23.53,292.0,7384.0,13276.0,1.53,-0.1,-29.08,-29.1
23.59,356.0,7436.0,13272.0,1.62,-0.02,-29.26,-29.12
23.66,412.0,7404.0,13188.0,1.59,-0.06,-29.31,-29.14
23.72,316.0,7316.0,13380.0,1.76,0.1,-28.67,-29.09
23.78,292.0,7432.0,13324.0,1.63,-0.0,-29.15,-29.1
23.85,408.0,7328.0,13156.0,1.53,-0.11,-29.12,-29.1
23.91,460.0,7368.0,13200.0,1.69,0.06,-29.17,-29.11
23.97,304.0,7356.0,13180.0,1.66,0.03,-29.17,-29.11
24.03,416.0,7280.0,13328.0,1.6,-0.05,-28.64,-29.07
24.1,232.0,7212.0,13172.0,1.7,0.09,-28.7,-29.02
24.16,248.0,7376.0,13232.0,1.71,0.13,-29.14,-29.03
24.22,300.0,7364.0,13348.0,1.81,0.22,-28.89,-29.0
24.28,384.0,7404.0,13304.0,1.6,0.02,-29.1,-29.01
24.34,352.0,7560.0,13360.0,1.66,0.08,-29.5,-29.06
24.41,308.0,7396.0,13252.0,1.54,-0.08,-29.17,-29.07
24.47,420.0,7324.0,13200.0,1.59,-0.05,-29.02,-29.07
24.53,364.0,7340.0,13176.0,1.63,-0.0,-29.12,-29.08
24.6,328.0,7316.0,13088.0,1.69,0.05,-29.2,-29.09
24.66,392.0,7268.0,13116.0,1.46,-0.18,-28.99,-29.09
24.72,328.0,7240.0,13136.0,1.56,-0.08,-28.86,-29.07
24.78,248.0,7312.0,13196.0,1.72,0.1,-28.99,-29.05
24.85,360.0,7348.0,13100.0,1.56,-0.06,-29.29,-29.08
24.91,308.0,7452.0,13216.0,1.67,0.04,-29.42,-29.11
24.97,328.0,7484.0,13164.0,1.54,-0.11,-29.62,-29.17
25.03,364.0,7292.0,13292.0,1.53,-0.16,-28.75,-29.14
25.1,352.0,7396.0,13396.0,1.66,-0.0,-28.9,-29.11
25.16,296.0,7300.0,13316.0,1.67,0.03,-28.73,-29.07
25.22,424.0,7316.0,13160.0,1.67,0.06,-29.07,-29.07
25.29,280.0,7344.0,12964.0,1.46,-0.16,-29.53,-29.13
25.35,260.0,7348.0,13228.0,1.69,0.05,-29.05,-29.12
25.41,420.0,7328.0,13228.0,1.63,-0.01,-28.99,-29.1
25.47,420.0,7432.0,13104.0,1.66,0.03,-29.56,-29.15
25.54,356.0,7444.0,13276.0,1.66,-0.01,-29.28,-29.16
25.6,376.0,7348.0,13352.0,1.79,0.11,-28.83,-29.12
25.66,352.0,7400.0,13068.0,1.68,0.03,-29.52,-29.16
25.72,416.0,7320.0,13220.0,1.66,-0.03,-28.97,-29.14
25.79,424.0,7344.0,13320.0,1.67,0.0,-28.87,-29.11
25.85,340.0,7340.0,13152.0,1.51,-0.14,-29.17,-29.13
25.91,388.0,7368.0,13188.0,1.6,-0.06,-29.19,-29.14
25.97,440.0,7260.0,13280.0,1.6,-0.05,-28.66,-29.09
26.04,300.0,7356.0,13196.0,1.69,0.07,-29.14,-29.09
26.1,236.0,7356.0,13448.0,1.5,-0.12,-28.68,-29.06
26.16,336.0,7256.0,13240.0,1.66,0.07,-28.72,-29.02
26.22,292.0,7456.0,13400.0,1.59,0.02,-29.09,-29.02
26.29,340.0,7420.0,13288.0,1.59,0.01,-29.18,-29.04
26.35,236.0,7380.0,13312.0,1.54,-0.04,-29.0,-29.04
26.41,268.0,7392.0,13412.0,1.53,-0.05,-28.86,-29.02
26.48,368.0,7428.0,13232.0,1.67,0.1,-29.31,-29.05
26.54,252.0,7348.0,13152.0,1.62,0.03,-29.19,-29.06
26.6,356.0,7332.0,13284.0,1.51,-0.09,-28.9,-29.05
26.66,376.0,7380.0,13340.0,1.53,-0.06,-28.95,-29.04
26.73,260.0,7428.0,13224.0,1.48,-0.1,-29.32,-29.08
26.79,460.0,7348.0,13136.0,1.51,-0.09,-29.22,-29.1
26.85,440.0,7488.0,13316.0,1.58,-0.03,-29.35,-29.12
26.92,384.0,7380.0,13260.0,1.56,-0.07,-29.1,-29.13
26.98,332.0,7416.0,13364.0,1.69,0.07,-29.03,-29.11
27.04,244.0,7468.0,13272.0,1.69,0.06,-29.37,-29.13
27.1,240.0,7448.0,13436.0,1.62,-0.02,-29.0,-29.12
27.17,392.0,7264.0,13252.0,1.72,0.09,-28.73,-29.08
27.23,428.0,7356.0,13152.0,1.65,0.05,-29.22,-29.09
27.29,236.0,7360.0,13308.0,1.67,0.06,-28.94,-29.07
27.35,332.0,7240.0,13168.0,1.61,0.01,-28.8,-29.04
27.41,204.0,7284.0,13268.0,1.63,0.04,-28.77,-29.01
27.48,176.0,7312.0,13400.0,1.65,0.09,-28.62,-28.97
27.54,336.0,7440.0,13352.0,1.78,0.24,-29.13,-28.97
27.6,344.0,7380.0,13228.0,1.57,0.03,-29.16,-28.99
27.66,256.0,7240.0,13184.0,1.7,0.14,-28.77,-28.96
27.72,420.0,7320.0,13080.0,1.63,0.09,-29.23,-28.98
27.79,308.0,7276.0,13028.0,1.64,0.07,-29.18,-29.0
27.85,336.0,7376.0,13216.0,1.64,0.06,-29.17,-29.01
27.91,360.0,7388.0,13240.0,1.55,-0.05,-29.16,-29.03
27.97,316.0,7292.0,13252.0,1.56,-0.04,-28.82,-29.01
28.04,172.0,7288.0,13216.0,1.55,-0.04,-28.87,-29.0
28.1,276.0,7384.0,13324.0,1.63,0.05,-28.99,-29.0
28.16,332.0,7368.0,13168.0,1.55,-0.03,-29.23,-29.02
28.23,156.0,7252.0,13356.0,1.63,0.04,-28.5,-28.97
28.29,276.0,7372.0,13256.0,1.57,0.01,-29.08,-28.98
28.35,296.0,7236.0,13028.0,1.68,0.11,-29.05,-28.98
28.41,384.0,7420.0,13188.0,1.65,0.08,-29.36,-29.01
28.47,220.0,7352.0,13300.0,1.63,0.02,-28.93,-29.0
28.54,388.0,7236.0,13336.0,1.7,0.11,-28.48,-28.94
28.6,328.0,7276.0,13316.0,1.56,0.01,-28.65,-28.91
28.66,336.0,7288.0,13292.0,1.57,0.04,-28.74,-28.89
28.72,268.0,7420.0,13344.0,1.54,0.02,-29.08,-28.91
28.78,296.0,7296.0,13332.0,1.63,0.1,-28.69,-28.88
28.85,356.0,7364.0,13356.0,1.53,0.01,-28.87,-28.88
28.91,344.0,7244.0,13060.0,1.63,0.11,-29.02,-28.89
28.97,436.0,7264.0,13056.0,1.7,0.17,-29.09,-28.9
29.03,288.0,7312.0,13136.0,1.68,0.13,-29.1,-28.91
29.09,304.0,7284.0,13224.0,1.47,-0.1,-28.85,-28.91
29.16,352.0,7308.0,13088.0,1.55,-0.01,-29.18,-28.94
29.22,240.0,7300.0,13200.0,1.67,0.1,-28.94,-28.93
29.28,364.0,7456.0,13340.0,1.61,0.03,-29.2,-28.96
29.34,260.0,7412.0,13348.0,1.74,0.14,-29.04,-28.96
29.41,340.0,7308.0,13136.0,1.68,0.08,-29.09,-28.97
29.47,300.0,7408.0,13244.0,1.56,-0.06,-29.22,-29.0
29.53,436.0,7264.0,13164.0,1.56,-0.07,-28.89,-28.99
29.6,384.0,7304.0,13200.0,1.56,-0.07,-28.96,-28.99
29.66,280.0,7536.0,13340.0,1.59,-0.03,-29.46,-29.04
29.72,248.0,7300.0,13060.0,1.59,-0.07,-29.2,-29.06
29.78,252.0,7192.0,13104.0,1.66,-0.01,-28.76,-29.03
29.85,292.0,7316.0,13128.0,1.64,-0.0,-29.13,-29.04
29.91,292.0,7304.0,13148.0,1.53,-0.12,-29.05,-29.05
29.97,320.0,7348.0,13228.0,1.66,0.0,-29.05,-29.05
30.04,388.0,7436.0,13360.0,1.66,0.0,-29.1,-29.06
30.1,300.0,7436.0,13320.0,1.72,0.06,-29.17,-29.06
30.16,328.0,7356.0,13228.0,1.6,-0.06,-29.08,-29.07
30.22,376.0,7356.0,13308.0,1.63,-0.03,-28.93,-29.06
30.29,396.0,7288.0,13348.0,1.6,-0.05,-28.63,-29.02
30.35,280.0,7272.0,13076.0,1.5,-0.13,-29.08,-29.03
30.41,328.0,7316.0,13244.0,1.71,0.08,-28.92,-29.01
30.47,320.0,7328.0,13132.0,1.66,0.04,-29.16,-29.03
30.54,432.0,7356.0,13172.0,1.53,-0.1,-29.18,-29.05
30.6,420.0,7376.0,13224.0,1.6,-0.05,-29.15,-29.06
30.66,224.0,7240.0,13360.0,1.59,-0.06,-28.45,-29.0
30.73,188.0,7480.0,13376.0,1.59,-0.02,-29.21,-29.03
30.79,376.0,7444.0,13344.0,1.63,0.01,-29.16,-29.04
30.85,400.0,7380.0,13196.0,1.57,-0.06,-29.22,-29.06
30.91,264.0,7264.0,13172.0,1.55,-0.09,-28.88,-29.05
30.98,292.0,7324.0,13152.0,1.73,0.1,-29.11,-29.05
31.04,308.0,7400.0,13204.0,1.62,-0.02,-29.27,-29.07
31.1,248.0,7284.0,13344.0,1.61,-0.04,-28.63,-29.03
31.17,372.0,7288.0,13076.0,1.53,-0.09,-29.13,-29.04
31.23,272.0,7396.0,13268.0,1.59,-0.04,-29.14,-29.06
31.29,232.0,7428.0,13272.0,1.61,-0.02,-29.23,-29.07
31.36,356.0,7352.0,13216.0,1.56,-0.09,-29.09,-29.08
31.42,244.0,7396.0,13304.0,1.73,0.08,-29.07,-29.08
31.48,276.0,7548.0,13352.0,1.47,-0.18,-29.48,-29.13
31.54,348.0,7352.0,13248.0,1.6,-0.08,-29.03,-29.12
31.61,388.0,7312.0,13276.0,1.71,0.04,-28.84,-29.09
31.67,392.0,7484.0,13204.0,1.56,-0.08,-29.54,-29.14
31.73,312.0,7272.0,13148.0,1.73,0.05,-28.95,-29.12
31.79,372.0,7368.0,13144.0,1.53,-0.14,-29.27,-29.14
31.86,392.0,7456.0,13204.0,1.59,-0.09,-29.45,-29.18
31.92,240.0,7252.0,13248.0,1.63,-0.07,-28.7,-29.13
31.98,252.0,7316.0,13188.0,1.72,0.05,-29.02,-29.12
32.05,344.0,7268.0,13196.0,1.68,0.03,-28.84,-29.09
32.11,232.0,7452.0,13344.0,1.49,-0.15,-29.18,-29.11
32.17,348.0,7372.0,13380.0,1.6,-0.04,-28.85,-29.08
32.23,356.0,7284.0,13308.0,1.66,0.04,-28.69,-29.04
32.3,168.0,7400.0,13336.0,1.66,0.06,-29.03,-29.03
32.36,424.0,7360.0,13116.0,1.73,0.13,-29.3,-29.05
32.42,280.0,7224.0,13132.0,1.58,-0.03,-28.82,-29.03
32.48,300.0,7340.0,13372.0,1.69,0.09,-28.76,-29.0
32.55,312.0,7332.0,13148.0,1.52,-0.05,-29.15,-29.02
32.61,284.0,7260.0,13044.0,1.53,-0.06,-29.1,-29.03
32.67,196.0,7416.0,13268.0,1.53,-0.06,-29.2,-29.05
32.74,304.0,7272.0,13188.0,1.67,0.07,-28.87,-29.03
32.8,280.0,7408.0,13248.0,1.56,-0.03,-29.21,-29.05
32.86,308.0,7332.0,13364.0,1.6,-0.0,-28.75,-29.02
32.92,344.0,7372.0,13352.0,1.6,0.02,-28.9,-29.01
32.99,396.0,7312.0,13372.0,1.57,-0.0,-28.67,-28.97
33.05,292.0,7400.0,13084.0,1.65,0.1,-29.49,-29.02
33.11,320.0,7272.0,13116.0,1.59,0.0,-29.01,-29.02
33.17,252.0,7268.0,13312.0,1.67,0.08,-28.63,-28.97
33.23,424.0,7292.0,13292.0,1.51,-0.05,-28.75,-28.95
33.3,364.0,7368.0,13260.0,1.56,0.02,-29.06,-28.96
33.36,296.0,7292.0,13248.0,1.6,0.05,-28.83,-28.95
33.42,368.0,7344.0,13336.0,1.67,0.13,-28.84,-28.93
33.48,216.0,7364.0,13284.0,1.6,0.07,-29.0,-28.93
33.55,368.0,7376.0,13316.0,1.79,0.25,-28.98,-28.92
33.61,312.0,7460.0,13248.0,1.71,0.17,-29.38,-28.96
33.67,340.0,7488.0,13244.0,1.63,0.05,-29.48,-29.01
33.73,288.0,7320.0,13376.0,1.61,-0.01,-28.69,-28.98
33.8,336.0,7284.0,13196.0,1.58,-0.01,-28.9,-28.97
33.86,400.0,7368.0,13364.0,1.69,0.1,-28.87,-28.96
33.92,348.0,7380.0,13232.0,1.66,0.08,-29.15,-28.97
33.98,448.0,7392.0,13336.0,1.63,0.03,-29.0,-28.97
34.05,172.0,7464.0,13448.0,1.53,-0.06,-29.03,-28.98
34.11,292.0,7408.0,13364.0,1.45,-0.15,-29.0,-28.99
34.17,236.0,7372.0,13308.0,1.53,-0.08,-28.98,-29.0
34.23,428.0,7380.0,13336.0,1.53,-0.07,-28.96,-29.0
34.3,268.0,7408.0,13280.0,1.69,0.1,-29.15,-29.01
34.36,380.0,7336.0,13224.0,1.79,0.18,-29.02,-29.0
34.42,260.0,7260.0,13220.0,1.56,-0.05,-28.77,-28.98
34.48,276.0,7372.0,13256.0,1.77,0.18,-29.08,-28.98
34.55,368.0,7316.0,13360.0,1.66,0.06,-28.71,-28.95
34.61,296.0,7412.0,13168.0,1.69,0.11,-29.37,-28.98
34.67,404.0,7376.0,13316.0,1.47,-0.15,-28.98,-28.99
34.73,292.0,7416.0,13408.0,1.63,0.02,-28.95,-28.99
34.8,376.0,7404.0,13268.0,1.64,0.03,-29.16,-29.0
34.86,352.0,7408.0,13264.0,1.75,0.12,-29.18,-29.02
34.92,292.0,7392.0,13220.0,1.63,-0.01,-29.21,-29.04
34.98,440.0,7268.0,13124.0,1.59,-0.07,-28.98,-29.03
35.05,384.0,7300.0,13156.0,1.63,-0.02,-29.03,-29.03
35.11,376.0,7264.0,13256.0,1.67,0.02,-28.72,-29.0
35.17,412.0,7360.0,13208.0,1.64,0.02,-29.13,-29.01
35.23,296.0,7376.0,13328.0,1.65,0.01,-28.96,-29.01
35.3,228.0,7404.0,13192.0,1.51,-0.12,-29.3,-29.04
35.36,404.0,7260.0,13296.0,1.56,-0.09,-28.64,-29.01
35.42,360.0,7372.0,13320.0,1.61,-0.01,-28.96,-29.0
35.49,160.0,7380.0,13316.0,1.63,0.01,-29.0,-29.0
35.55,532.0,7296.0,13308.0,1.64,0.02,-28.73,-28.97
35.61,168.0,7256.0,13112.0,1.61,0.01,-28.96,-28.97
35.67,400.0,7300.0,13212.0,1.63,0.04,-28.92,-28.96
35.73,376.0,7384.0,13220.0,1.65,0.06,-29.19,-28.98
35.8,296.0,7340.0,13188.0,1.71,0.1,-29.1,-28.99
35.86,332.0,7348.0,13264.0,1.64,0.02,-28.99,-28.99
35.92,240.0,7452.0,13372.0,1.57,-0.05,-29.13,-29.01
35.98,328.0,7456.0,13476.0,1.51,-0.12,-28.95,-29.01
36.05,300.0,7368.0,13324.0,1.58,-0.04,-28.94,-29.0
36.11,148.0,7376.0,13332.0,1.57,-0.05,-28.95,-29.0
36.17,400.0,7464.0,13300.0,1.64,0.03,-29.3,-29.03
36.23,436.0,7440.0,13400.0,1.61,-0.03,-29.04,-29.03
36.3,264.0,7464.0,13088.0,1.69,0.06,-29.7,-29.1
36.36,420.0,7328.0,13084.0,1.51,-0.18,-29.25,-29.12
36.42,452.0,7340.0,13172.0,1.66,-0.04,-29.13,-29.13
36.49,280.0,7300.0,13188.0,1.74,0.04,-28.97,-29.11
36.55,376.0,7356.0,13184.0,1.63,-0.06,-29.16,-29.12
36.61,480.0,7336.0,13260.0,1.51,-0.18,-28.95,-29.11
36.67,240.0,7328.0,13396.0,1.66,-0.01,-28.68,-29.07
36.74,280.0,7376.0,13188.0,1.66,0.02,-29.22,-29.08
36.8,468.0,7408.0,13244.0,1.47,-0.19,-29.22,-29.11
36.86,360.0,7416.0,13336.0,1.51,-0.16,-29.08,-29.11
36.93,284.0,7396.0,13120.0,1.71,0.05,-29.41,-29.14
36.99,372.0,7352.0,13308.0,1.6,-0.09,-28.92,-29.12
37.05,372.0,7332.0,13072.0,1.63,-0.04,-29.29,-29.14
37.11,308.0,7328.0,13248.0,1.56,-0.13,-28.95,-29.13
37.18,468.0,7404.0,13100.0,1.62,-0.05,-29.47,-29.17
37.24,320.0,7372.0,13236.0,1.62,-0.07,-29.12,-29.17
37.3,92.0,7364.0,13316.0,1.65,-0.04,-28.94,-29.15
37.37,428.0,7388.0,13312.0,1.69,0.02,-29.03,-29.13
37.43,368.0,7416.0,13216.0,1.73,0.07,-29.3,-29.15
37.49,236.0,7436.0,13344.0,1.57,-0.1,-29.13,-29.15
37.55,304.0,7320.0,13104.0,1.6,-0.08,-29.19,-29.16
37.62,436.0,7268.0,13072.0,1.64,-0.04,-29.07,-29.15
37.68,260.0,7372.0,13336.0,1.56,-0.11,-28.93,-29.14
37.74,376.0,7320.0,13288.0,1.6,-0.05,-28.85,-29.11
37.81,460.0,7368.0,13188.0,1.5,-0.13,-29.19,-29.12
37.87,364.0,7296.0,13344.0,1.56,-0.08,-28.67,-29.08
37.93,324.0,7300.0,13260.0,1.57,-0.03,-28.83,-29.06
38.0,316.0,7376.0,13344.0,1.59,0.0,-28.93,-29.04
38.06,356.0,7408.0,13288.0,1.66,0.08,-29.14,-29.05
38.12,240.0,7336.0,13284.0,1.5,-0.09,-28.91,-29.04
38.18,408.0,7372.0,13212.0,1.61,0.04,-29.16,-29.05
38.24,456.0,7272.0,13032.0,1.73,0.15,-29.16,-29.05
38.31,272.0,7436.0,13292.0,1.66,0.07,-29.22,-29.07
38.37,288.0,7364.0,13096.0,1.59,-0.01,-29.35,-29.1
38.43,176.0,6912.0,12624.0,-114.66,-116.29,-28.7,-35.63
38.5,368.0,3844.0,14312.0,-163.57,-164.62,-15.03,-43.58
38.57,556.0,-220.0,14880.0,-168.69,-167.33,0.85,-49.15
38.64,352.0,-2836.0,14864.0,-169.15,-163.54,10.8,-52.5
38.7,256.0,-5936.0,13988.0,-173.62,-162.6,22.99,-54.41
38.77,580.0,-9296.0,12420.0,-171.98,-154.32,36.81,-54.08
38.84,340.0,-10932.0,10840.0,-168.27,-142.77,45.24,-52.11
38.91,504.0,-13372.0,8032.0,-185.79,-151.86,59.01,-49.51
38.98,436.0,-15372.0,4572.0,-170.24,-126.87,73.44,-43.9
39.05,824.0,-16276.0,1008.0,-167.61,-114.0,86.46,-36.67
39.12,392.0,-16320.0,-2632.0,-177.89,-113.52,99.16,-28.77
39.19,560.0,-16024.0,-6048.0,-176.73,-101.17,110.68,-19.77
39.26,692.0,-14480.0,-9056.0,-183.29,-96.29,122.02,-10.22
39.33,700.0,-12696.0,-11668.0,-178.63,-79.98,132.58,0.57
39.4,512.0,-10052.0,-14464.0,-170.1,-59.82,145.2,12.87
39.46,296.0,-7316.0,-16244.0,-169.21,-47.28,155.75,25.73
39.53,620.0,-3804.0,-17568.0,-173.58,-40.18,167.78,38.97
39.6,328.0,92.0,-17880.0,-172.06,-27.32,-179.71,13.16
39.67,308.0,2800.0,-17588.0,-188.68,-60.91,-170.95,-10.7
39.74,260.0,6992.0,-16084.0,-165.6,-51.86,-156.5,-29.99
39.81,380.0,9624.0,-14648.0,-169.95,-67.33,-146.69,-47.04
39.88,516.0,12268.0,-12400.0,-180.15,-86.28,-135.31,-62.14
39.95,552.0,13740.0,-9712.0,-175.39,-87.95,-125.25,-74.66
40.02,340.0,15592.0,-6252.0,-185.92,-102.94,-111.85,-85.15
40.09,-32.0,17184.0,-908.0,-181.98,-101.36,-93.02,-92.39
40.16,340.0,15872.0,1528.0,-172.64,-92.08,-84.5,-97.12
40.22,284.0,15260.0,4584.0,-164.95,-83.28,-73.28,-99.48
40.29,192.0,13724.0,7880.0,-172.27,-88.28,-60.14,-100.43
40.36,232.0,10864.0,10356.0,-171.5,-83.98,-46.37,-99.58
40.43,588.0,8752.0,12468.0,-187.53,-95.35,-35.07,-98.28
40.5,84.0,6032.0,14004.0,-174.49,-76.77,-23.3,-94.63
40.56,480.0,2320.0,15204.0,-165.63,-61.67,-8.68,-88.84
40.63,368.0,-364.0,14844.0,-169.5,-58.55,1.4,-82.43
40.69,252.0,-4016.0,14856.0,-180.6,-62.36,15.13,-75.42
40.76,436.0,-7484.0,13300.0,-173.88,-47.8,29.37,-66.88
40.83,532.0,-10296.0,11412.0,-181.53,-47.11,42.06,-57.84
40.9,380.0,-13040.0,9184.0,-174.61,-31.53,54.84,-47.47
40.97,584.0,-14540.0,6256.0,-175.1,-23.14,66.72,-36.41
41.03,448.0,-15924.0,3220.0,-181.78,-20.86,78.57,-25.12
41.1,380.0,-16264.0,-184.0,-178.5,-8.58,90.65,-13.01
41.17,584.0,-16280.0,-3832.0,-170.08,8.86,103.25,0.16
41.23,508.0,-15784.0,-7280.0,-169.79,18.08,114.76,13.65
41.3,684.0,-14228.0,-10204.0,-177.02,19.61,125.65,26.99
41.37,448.0,-12028.0,-12756.0,-173.73,31.44,136.68,40.85
41.44,756.0,-10664.0,-14664.0,-189.08,24.4,143.97,53.58
41.51,516.0,-5196.0,-17432.0,-169.38,51.97,163.4,68.75
41.57,432.0,-2464.0,-17672.0,-168.05,61.55,172.06,83.73
41.64,400.0,680.0,-17788.0,-171.49,65.81,-177.81,59.13
41.71,388.0,4288.0,-17444.0,-184.1,32.55,-166.19,36.5
41.77,388.0,6072.0,-16452.0,-172.98,26.03,-159.74,16.67
41.84,520.0,10148.0,-13984.0,-166.77,16.9,-144.03,0.16
41.91,232.0,12484.0,-11584.0,-177.35,-6.23,-132.86,-14.72
41.98,400.0,14976.0,-8576.0,-172.02,-11.18,-119.8,-26.9
42.05,480.0,15176.0,-5696.0,-181.74,-29.01,-110.57,-37.88
42.12,432.0,15944.0,-1940.0,-178.27,-31.91,-96.94,-46.35
42.19,292.0,16212.0,940.0,-182.83,-40.91,-86.68,-53.28
42.25,412.0,15084.0,4928.0,-164.6,-25.62,-71.91,-56.84
42.32,548.0,13820.0,7760.0,-170.46,-32.79,-60.69,-59.23
42.39,400.0,11084.0,10556.0,-169.82,-32.28,-46.4,-59.76
42.46,484.0,7924.0,12932.0,-185.79,-47.09,-31.5,-59.54
42.52,504.0,5252.0,14112.0,-174.06,-32.9,-20.41,-57.23
42.59,384.0,1876.0,14816.0,-168.3,-23.92,-7.22,-53.19
42.66,240.0,-1736.0,14960.0,-176.27,-27.88,6.62,-48.31
42.72,576.0,-4708.0,14256.0,-177.08,-23.91,18.28,-42.46
42.79,688.0,-7592.0,12968.0,-180.24,-21.79,30.35,-35.84
42.86,344.0,-9684.0,12192.0,-183.38,-19.19,38.46,-28.89
42.93,608.0,-13480.0,8120.0,-171.74,-1.69,58.94,-19.42
42.99,728.0,-15008.0,5496.0,-172.73,4.13,69.89,-9.46
43.06,640.0,-15612.0,2840.0,-181.13,2.61,79.69,0.35
43.12,296.0,-16568.0,-388.0,-178.68,11.91,91.34,10.82
43.19,496.0,-16364.0,-3684.0,-170.99,26.52,102.69,22.24
43.25,580.0,-15772.0,-7308.0,-169.11,35.3,114.86,34.35
43.32,728.0,-13936.0,-9952.0,-176.22,35.11,125.53,46.3
43.39,508.0,-12168.0,-12624.0,-173.06,45.1,136.05,58.72
43.46,936.0,-9548.0,-15288.0,-187.62,37.22,148.01,70.67
43.52,412.0,-6408.0,-16700.0,-173.5,58.04,159.01,83.75
43.59,460.0,-2512.0,-17332.0,-168.57,69.5,171.75,97.49
43.66,644.0,868.0,-17700.0,-172.62,71.9,-177.19,-248.91
43.73,336.0,4064.0,-17228.0,-183.9,66.85,-166.73,-235.87
43.8,312.0,7468.0,-16104.0,-179.05,77.71,-155.12,-222.23
43.87,200.0,11044.0,-13832.0,-165.39,97.24,-141.39,-207.33
43.94,380.0,13592.0,-11272.0,-173.24,95.17,-129.67,-192.79
44.01,364.0,15124.0,-7980.0,-168.85,105.12,-117.82,-177.89
44.08,376.0,16336.0,-4380.0,-176.11,103.16,-105.01,-163.32
44.15,456.0,16500.0,-1116.0,-172.46,111.98,-93.87,-148.56
44.22,480.0,15724.0,2672.0,-187.53,101.76,-80.36,-134.68
44.29,316.0,14728.0,5328.0,-176.53,117.57,-70.11,-120.33
44.36,304.0,12852.0,8464.0,-168.69,129.87,-56.63,-105.35
44.43,380.0,10248.0,11232.0,-170.38,132.48,-42.38,-90.28
44.49,272.0,7668.0,13016.0,-176.43,130.66,-30.5,-75.69
44.56,340.0,4608.0,14448.0,-182.93,128.14,-17.69,-61.59
44.63,184.0,1228.0,15268.0,-185.32,129.62,-4.6,-47.52
44.7,312.0,-2404.0,14900.0,-170.75,147.95,9.17,-32.55
44.76,532.0,-5252.0,14116.0,-167.49,154.86,20.41,-17.59
44.83,368.0,-9320.0,12144.0,-177.29,148.37,37.5,-2.64
44.9,648.0,-11672.0,10620.0,-174.6,154.55,47.7,12.0
44.96,380.0,-13464.0,8092.0,-174.66,157.6,58.99,26.61
45.03,388.0,-15164.0,5208.0,-166.8,168.27,71.05,41.41
45.1,460.0,-16244.0,1996.0,-173.96,163.68,82.99,55.62
45.16,596.0,-16368.0,-1296.0,-171.77,168.24,94.53,69.81
45.23,760.0,-16044.0,-3980.0,-184.8,157.35,103.93,82.99
45.3,616.0,-15024.0,-8208.0,-172.13,171.84,118.65,97.37
45.37,576.0,-12836.0,-11356.0,-166.99,178.82,131.5,112.02
45.44,580.0,-11736.0,-13352.0,-177.82,169.69,138.69,125.63
45.51,260.0,-7784.0,-15412.0,-176.3,172.35,153.2,139.52
45.58,356.0,-5548.0,-16964.0,-180.19,169.66,161.89,152.5
45.65,408.0,120.0,-17820.0,-179.21,171.47,-179.61,-193.79
45.72,524.0,3164.0,-17348.0,-178.58,173.35,-169.66,-180.38
45.79,580.0,6364.0,-16420.0,-167.27,185.61,-158.81,-166.32
45.86,436.0,9548.0,-14832.0,-173.7,179.84,-147.23,-152.89
45.93,456.0,12340.0,-11984.0,-172.8,181.24,-134.16,-139.42
46.0,276.0,14336.0,-9116.0,-181.12,173.39,-122.45,-126.46
46.07,468.0,16296.0,-5548.0,-179.24,175.63,-108.8,-113.45
46.14,460.0,16032.0,-2196.0,-185.39,169.89,-97.8,-101.03
46.21,324.0,16104.0,1060.0,-170.09,185.48,-86.23,-87.91
46.28,316.0,15328.0,4272.0,-167.77,187.95,-74.43,-75.13
46.35,408.0,13376.0,7820.0,-175.08,180.7,-59.69,-62.58
46.42,432.0,11740.0,10148.0,-175.57,180.46,-49.16,-50.26
46.49,140.0,9044.0,11964.0,-189.47,166.67,-37.09,-38.64
46.55,408.0,6444.0,13768.0,-173.01,183.26,-25.08,-26.14
46.62,324.0,2480.0,14852.0,-168.4,187.96,-9.48,-13.02
46.69,340.0,-432.0,15312.0,-166.56,190.11,1.62,-0.18
46.75,596.0,-4240.0,14512.0,-183.6,173.23,16.29,11.53
46.82,540.0,-7776.0,12852.0,-173.47,183.78,31.18,24.55
46.88,292.0,-10556.0,11252.0,-165.41,192.4,43.17,37.96
46.95,568.0,-11936.0,9408.0,-174.59,183.68,51.75,50.51
47.02,488.0,-14012.0,6904.0,-178.58,179.79,63.77,62.6
47.08,464.0,-15908.0,3156.0,-179.44,179.03,78.78,74.95
47.15,576.0,-16700.0,528.0,-180.38,178.42,88.19,86.96
47.22,688.0,-16372.0,-3028.0,-174.75,184.16,100.48,99.15
47.28,580.0,-15536.0,-6632.0,-173.95,185.07,113.12,111.98
47.35,640.0,-14016.0,-9804.0,-179.14,179.99,124.97,124.57
47.42,544.0,-11876.0,-12596.0,-175.82,183.34,136.69,137.27
47.5,556.0,-8496.0,-15312.0,-179.59,179.52,150.98,150.08
47.56,584.0,-6024.0,-16556.0,-170.97,188.22,160.01,162.85
47.63,472.0,-2432.0,-17444.0,-168.44,190.49,172.06,175.67
47.7,488.0,296.0,-17464.0,-171.87,186.75,-179.03,-172.17
47.77,444.0,4096.0,-17244.0,-182.11,175.9,-166.64,-160.66
47.84,420.0,8204.0,-15996.0,-184.85,172.64,-152.85,-148.94
47.92,96.0,11036.0,-13700.0,-170.07,187.07,-141.15,-136.31
47.99,188.0,13476.0,-11080.0,-170.95,185.76,-129.43,-123.88
48.06,372.0,14728.0,-8284.0,-171.69,184.52,-119.36,-111.6
48.13,368.0,15872.0,-4512.0,-173.42,182.11,-105.87,-99.52
48.2,636.0,16364.0,-556.0,-170.6,184.36,-91.95,-87.27
48.27,468.0,16048.0,2772.0,-186.17,168.38,-80.2,-76.39
48.33,384.0,14784.0,5056.0,-176.52,177.69,-71.12,-65.15
48.4,240.0,12776.0,8592.0,-168.98,184.7,-56.08,-53.06
48.47,340.0,10568.0,11088.0,-172.38,181.03,-43.62,-41.16
48.54,532.0,7944.0,12832.0,-177.34,175.86,-31.76,-29.39
48.6,248.0,4652.0,14204.0,-181.11,171.87,-18.13,-17.83
48.67,248.0,2056.0,15284.0,-186.79,166.18,-7.66,-6.73
48.74,356.0,-1508.0,15020.0,-171.25,181.63,5.73,5.2
48.8,248.0,-5260.0,14556.0,-168.88,184.05,19.87,17.33
48.87,340.0,-8600.0,12764.0,-181.75,171.4,33.97,29.29
48.93,460.0,-11708.0,9712.0,-178.78,174.77,50.32,41.92
49.0,548.0,-13376.0,8236.0,-167.71,186.57,58.38,54.76
49.07,496.0,-14928.0,5560.0,-169.02,185.57,69.57,67.35
49.13,752.0,-16104.0,2140.0,-176.2,178.58,82.43,79.56
49.2,588.0,-16540.0,-1192.0,-173.3,181.73,94.12,91.91
49.27,672.0,-16264.0,-4624.0,-186.78,168.44,105.87,103.55
49.34,600.0,-15332.0,-7872.0,-167.13,188.29,117.18,116.73
49.41,584.0,-13356.0,-10956.0,-168.2,187.26,129.36,129.73
49.48,540.0,-11508.0,-13600.0,-176.35,179.08,139.76,142.11
49.55,664.0,-9008.0,-15336.0,-177.76,177.46,149.57,154.11
49.62,452.0,-4900.0,-17156.0,-179.33,175.49,164.06,166.08
49.69,308.0,-492.0,-17804.0,-182.23,172.42,178.42,178.13
49.76,424.0,1920.0,-17624.0,-172.16,182.51,-173.78,-169.84
49.83,312.0,5580.0,-16656.0,-171.18,183.14,-161.48,-157.39
49.9,224.0,7992.0,-15432.0,-178.25,175.71,-152.62,-145.82
49.97,316.0,11100.0,-13048.0,-171.9,181.46,-139.61,-133.72
50.04,284.0,14876.0,-8696.0,-183.92,168.91,-120.31,-121.45
50.11,436.0,15200.0,-7400.0,-176.31,176.62,-115.96,-109.74
50.18,240.0,16140.0,-4120.0,-188.98,163.4,-104.32,-98.88
50.25,240.0,16148.0,944.0,-173.83,178.06,-86.65,-86.5
50.32,260.0,15676.0,3944.0,-173.31,178.57,-75.88,-74.78
50.39,504.0,14388.0,7128.0,-179.88,171.9,-63.65,-63.23
50.45,108.0,12120.0,10132.0,-179.81,171.94,-50.11,-51.46
50.52,252.0,9512.0,12156.0,-177.56,174.31,-38.04,-39.35
50.59,532.0,6112.0,13788.0,-165.9,186.08,-23.91,-26.47
50.66,164.0,3420.0,14572.0,-172.59,179.62,-13.21,-14.23
50.73,584.0,-1368.0,14860.0,-171.59,180.71,5.26,-1.23
50.79,664.0,-3892.0,14516.0,-187.08,165.78,15.01,10.19
50.86,532.0,-6060.0,14008.0,-175.89,177.39,23.39,22.13
50.92,716.0,-10176.0,11840.0,-165.86,187.53,40.68,35.25
50.99,484.0,-12564.0,8916.0,-169.93,183.93,54.64,48.42
51.06,380.0,-14312.0,6568.0,-181.05,173.35,65.35,60.53
51.12,584.0,-15496.0,4000.0,-175.71,179.11,75.53,72.76
51.19,752.0,-16120.0,-128.0,-170.88,184.18,90.45,85.59
51.26,664.0,-16316.0,-2556.0,-177.17,178.31,98.9,97.59
51.32,472.0,-15452.0,-5804.0,-175.96,179.63,110.59,109.81
51.39,400.0,-14584.0,-9432.0,-180.5,175.16,122.89,122.11
51.46,560.0,-11692.0,-12540.0,-177.45,178.28,137.0,134.8
51.53,336.0,-9252.0,-14596.0,-170.3,185.62,147.63,147.9
51.6,704.0,-6180.0,-16196.0,-170.18,185.71,159.11,160.65
51.67,596.0,-2992.0,-17164.0,-170.92,184.84,170.11,173.15
51.74,296.0,1624.0,-17760.0,-171.21,184.28,-174.78,-174.09
51.81,384.0,4184.0,-17304.0,-183.93,171.5,-166.41,-162.45
51.89,556.0,7564.0,-16072.0,-181.44,173.64,-154.8,-150.69
51.96,276.0,11108.0,-13532.0,-168.21,186.51,-140.62,-137.84
52.03,504.0,13392.0,-10980.0,-171.78,182.69,-129.35,-125.24
52.1,184.0,14948.0,-8068.0,-167.98,186.13,-118.36,-112.6
52.17,368.0,15984.0,-4452.0,-173.91,179.68,-105.56,-100.53
52.24,260.0,16596.0,-612.0,-170.92,182.23,-92.11,-88.14
52.31,324.0,15992.0,2652.0,-186.65,166.14,-80.58,-77.34
52.38,620.0,14924.0,5380.0,-176.88,175.62,-70.18,-66.01
52.44,180.0,13096.0,8540.0,-169.37,182.76,-56.89,-54.04
52.51,504.0,10344.0,11080.0,-170.74,181.14,-43.03,-41.95
52.58,372.0,7828.0,13032.0,-177.11,174.68,-30.99,-30.09
52.65,576.0,4460.0,14436.0,-182.86,168.84,-17.17,-18.53
52.71,260.0,328.0,15220.0,-184.0,167.82,-1.23,-6.55
52.78,400.0,-2560.0,14808.0,-171.37,180.91,9.81,5.59
52.84,600.0,-5236.0,14412.0,-169.28,183.37,19.97,17.65
52.91,452.0,-9364.0,12472.0,-179.6,173.26,36.9,30.0
52.98,368.0,-12500.0,9832.0,-177.34,176.11,51.81,42.8
53.04,364.0,-13332.0,8336.0,-171.1,183.13,57.98,55.29
53.11,468.0,-14824.0,5428.0,-168.95,185.51,69.89,67.86
53.18,764.0,-16084.0,2180.0,-175.89,178.75,82.28,80.01
53.24,604.0,-16508.0,-1144.0,-172.87,181.96,93.96,92.3
53.31,140.0,-16684.0,-2992.0,-187.5,167.48,100.17,103.23
53.38,496.0,-14956.0,-8316.0,-167.44,187.27,119.08,116.58
53.45,400.0,-13084.0,-11192.0,-167.72,187.21,130.54,129.72
53.52,340.0,-12164.0,-13268.0,-179.4,175.6,137.49,141.63
53.59,468.0,-8000.0,-15312.0,-176.9,177.73,152.41,154.01
53.66,400.0,-4868.0,-16828.0,-181.77,172.72,163.87,165.8
53.73,360.0,844.0,-18252.0,-181.09,173.23,-177.35,-181.6
53.8,784.0,2320.0,-17384.0,-180.68,174.02,-172.4,-169.8
53.87,356.0,6264.0,-16452.0,-168.46,186.01,-159.16,-156.92
53.94,152.0,10308.0,-14264.0,-174.99,179.28,-144.15,-144.23
54.01,352.0,12244.0,-12152.0,-176.63,177.64,-134.78,-131.84
54.09,496.0,13816.0,-9600.0,-179.64,174.37,-124.79,-119.94
54.16,328.0,15396.0,-5564.0,-181.44,172.14,-109.87,-108.0
54.23,332.0,16608.0,-1564.0,-183.78,169.64,-95.38,-95.94
54.3,336.0,16020.0,1224.0,-171.83,181.63,-85.63,-83.73
54.36,400.0,15248.0,4480.0,-167.76,185.54,-73.63,-71.47
54.43,240.0,13540.0,7580.0,-174.05,179.05,-60.76,-59.54
54.5,492.0,11072.0,10084.0,-174.75,178.25,-47.67,-47.53
54.57,168.0,8992.0,12004.0,-188.6,164.38,-36.84,-36.32
54.63,392.0,5800.0,13836.0,-175.75,177.19,-22.74,-24.19
54.7,424.0,2296.0,14980.0,-166.16,186.91,-8.71,-11.26
54.77,320.0,-504.0,14824.0,-167.55,185.74,1.95,1.17
54.83,524.0,-3692.0,14492.0,-181.76,171.59,14.29,12.25
54.9,496.0,-8028.0,12756.0,-172.63,180.91,32.18,25.13
54.96,388.0,-10644.0,11016.0,-167.72,186.43,44.02,38.22
55.03,680.0,-11732.0,9696.0,-175.69,178.96,50.43,50.32
55.1,576.0,-14224.0,6548.0,-176.73,177.93,65.28,62.48
55.16,616.0,-15704.0,3404.0,-182.08,172.81,77.77,74.37
55.23,556.0,-16452.0,1264.0,-181.67,173.52,85.61,85.87
55.3,540.0,-16580.0,-3872.0,-172.43,182.74,103.14,98.56
55.37,608.0,-15856.0,-7144.0,-173.27,182.29,114.25,111.41
55.44,552.0,-14376.0,-10228.0,-178.32,177.49,125.43,123.96
55.51,568.0,-11536.0,-13168.0,-175.61,180.33,138.78,136.94
55.58,660.0,-9348.0,-14620.0,-187.37,168.72,147.41,148.71
55.65,476.0,-6044.0,-16680.0,-167.63,188.36,160.08,161.64
55.72,456.0,-2212.0,-17620.0,-167.36,188.49,172.84,174.56
55.79,232.0,460.0,-17516.0,-177.92,177.77,-178.5,-173.65
55.86,272.0,4884.0,-16768.0,-179.61,175.65,-163.76,-161.68
55.93,320.0,8004.0,-15396.0,-185.66,169.42,-152.53,-150.01
56.0,228.0,9136.0,-14236.0,-179.78,175.08,-147.31,-138.7
56.07,524.0,13092.0,-10556.0,-174.21,179.88,-128.88,-126.31
56.14,324.0,14464.0,-8396.0,-176.32,177.54,-120.13,-114.3
56.21,304.0,15888.0,-3900.0,-168.61,184.73,-103.79,-101.52
56.28,468.0,15864.0,-736.0,-169.8,183.34,-92.66,-89.01
56.35,144.0,15468.0,3008.0,-180.76,172.05,-79.0,-77.58
56.42,492.0,14128.0,6688.0,-178.2,174.49,-64.67,-65.68
56.48,460.0,13400.0,8184.0,-187.73,165.05,-58.59,-54.99
56.55,324.0,10296.0,11280.0,-171.85,180.62,-42.39,-42.76
56.62,296.0,7096.0,13604.0,-170.92,181.58,-27.55,-30.01
56.69,292.0,3536.0,14928.0,-180.07,172.64,-13.33,-17.8
56.76,552.0,1364.0,15184.0,-178.58,174.52,-5.13,-5.93
56.82,484.0,-2744.0,15004.0,-181.67,171.5,10.36,5.83
56.89,736.0,-6492.0,13992.0,-165.98,187.59,24.89,18.83
56.95,608.0,-8692.0,12724.0,-172.86,181.23,34.34,31.24
57.02,476.0,-10960.0,10936.0,-172.29,182.07,45.06,43.52
57.09,604.0,-13628.0,7556.0,-187.44,167.06,60.99,55.47
57.15,744.0,-15516.0,4400.0,-171.28,183.69,74.17,68.38
57.22,508.0,-16388.0,1124.0,-169.13,186.34,86.08,81.33
57.29,344.0,-16788.0,-2244.0,-175.34,180.54,97.61,93.79
57.35,952.0,-16248.0,-6472.0,-181.63,174.58,111.72,106.24
57.42,380.0,-14452.0,-8940.0,-179.26,177.43,121.74,118.95
57.49,772.0,-13152.0,-11836.0,-179.79,177.14,131.99,131.36
57.56,408.0,-9908.0,-14760.0,-173.53,183.45,146.13,144.54
57.63,492.0,-6968.0,-16436.0,-171.76,185.36,157.03,157.4
57.7,484.0,-3520.0,-17764.0,-176.21,180.88,168.79,169.87
57.77,496.0,-860.0,-17700.0,-174.02,182.98,177.22,182.03
57.84,524.0,3304.0,-17548.0,-189.71,166.86,-169.34,-166.84
57.91,676.0,6924.0,-16104.0,-165.48,190.87,-156.73,-153.72
57.98,460.0,9484.0,-14460.0,-169.65,186.44,-146.74,-141.22
58.05,504.0,12316.0,-12060.0,-179.18,176.42,-134.4,-129.37
58.13,340.0,14644.0,-8756.0,-173.52,181.63,-120.88,-116.84
58.2,256.0,15824.0,-5408.0,-181.32,173.47,-108.87,-105.06
58.27,328.0,16116.0,-2080.0,-178.84,175.61,-97.35,-93.17
58.34,464.0,16120.0,1536.0,-190.98,163.09,-84.56,-82.27
58.4,124.0,14936.0,4924.0,-167.46,186.42,-71.75,-69.92
58.47,544.0,13288.0,8112.0,-168.73,184.99,-58.6,-57.57
58.54,288.0,11252.0,11012.0,-170.08,183.54,-45.62,-45.23
58.61,436.0,7988.0,12916.0,-182.76,170.83,-31.74,-33.32
58.67,280.0,4708.0,14180.0,-176.44,177.28,-18.37,-21.03
58.74,480.0,1324.0,14592.0,-185.47,168.49,-5.18,-9.16
58.81,380.0,-1596.0,15128.0,-175.82,178.49,6.02,2.88
58.87,436.0,-5180.0,13832.0,-175.78,178.8,20.53,15.04
58.94,544.0,-7048.0,13460.0,-181.83,173.23,27.64,26.66
59.0,684.0,-10056.0,11680.0,-183.57,171.57,40.73,38.35
59.07,420.0,-13708.0,7912.0,-170.74,184.61,60.01,51.81
59.14,540.0,-14900.0,5592.0,-172.37,183.69,69.43,64.59
59.2,472.0,-15836.0,2344.0,-179.38,177.09,81.58,76.92
59.27,960.0,-16564.0,-1660.0,-177.27,179.6,95.72,89.6
59.34,724.0,-16092.0,-4696.0,-177.08,180.33,106.27,102.26
59.41,380.0,-14888.0,-7752.0,-168.18,189.57,117.51,115.69
59.48,492.0,-13440.0,-10780.0,-170.76,187.16,128.73,128.73
59.55,240.0,-11288.0,-13524.0,-175.58,182.33,140.15,141.47
59.62,360.0,-8256.0,-16196.0,-180.44,177.35,152.99,153.91
59.69,368.0,-4704.0,-17108.0,-180.41,177.3,164.63,166.08
59.76,540.0,-2812.0,-17240.0,-182.66,174.93,170.74,177.44
59.83,564.0,1728.0,-17624.0,-172.37,184.63,-174.4,-170.22
59.9,544.0,5428.0,-16544.0,-172.71,183.91,-161.84,-157.72
59.97,564.0,7780.0,-15432.0,-179.31,176.95,-153.25,-146.1
60.04,348.0,11232.0,-13300.0,-172.89,182.74,-139.82,-133.92
60.11,236.0,14840.0,-8716.0,-184.73,170.37,-120.43,-121.55
60.18,492.0,14896.0,-7436.0,-177.64,177.56,-116.53,-109.83
60.25,356.0,15636.0,-4744.0,-190.78,163.82,-106.88,-99.22
60.32,276.0,15888.0,940.0,-174.28,179.64,-86.61,-86.7
60.39,288.0,15496.0,4028.0,-173.32,180.61,-75.43,-74.79
60.46,336.0,13800.0,7032.0,-179.34,174.53,-63.0,-63.01
60.53,432.0,12260.0,10180.0,-180.27,173.6,-50.3,-51.18
60.59,208.0,9648.0,12108.0,-181.26,172.69,-38.55,-39.25
60.66,296.0,5844.0,13784.0,-169.4,184.61,-22.98,-26.37
60.73,636.0,3020.0,14712.0,-171.76,182.55,-11.6,-13.78
60.8,252.0,-1056.0,15100.0,-171.24,183.26,4.0,-0.82
60.86,292.0,-4496.0,14788.0,-185.47,169.45,16.91,10.97
60.93,492.0,-7668.0,12724.0,-176.58,178.86,31.07,23.75
61.0,488.0,-10468.0,11544.0,-166.36,189.71,42.2,36.99
61.06,472.0,-12480.0,9240.0,-172.47,184.05,53.48,49.86
61.13,376.0,-13968.0,6832.0,-180.12,176.72,63.94,61.85
61.2,496.0,-15624.0,3228.0,-179.78,177.24,78.33,74.13
61.26,524.0,-16468.0,956.0,-184.29,173.09,86.68,85.75
61.33,412.0,-16500.0,-3176.0,-175.07,182.39,100.9,98.01
61.4,588.0,-15720.0,-7004.0,-175.89,181.82,114.02,110.87
61.47,552.0,-14440.0,-9968.0,-180.88,177.11,124.62,123.36
61.54,468.0,-11468.0,-12648.0,-178.29,179.8,137.8,136.09
61.61,716.0,-8652.0,-14820.0,-190.37,167.88,149.72,148.16
61.68,392.0,-5772.0,-16816.0,-166.12,192.26,161.06,161.5
61.75,428.0,-2332.0,-17888.0,-171.37,186.97,172.57,174.31
61.82,544.0,1132.0,-18004.0,-179.02,179.17,-176.4,-173.55
61.89,464.0,4000.0,-17168.0,-182.3,175.64,-166.88,-161.77
61.96,516.0,6468.0,-16272.0,-189.62,167.86,-158.32,-150.83
62.03,248.0,10676.0,-13884.0,-170.84,185.98,-142.44,-138.21
62.1,448.0,13824.0,-10368.0,-173.0,183.44,-126.87,-125.24
62.17,300.0,14936.0,-8076.0,-172.0,184.3,-118.4,-112.73
62.24,532.0,16044.0,-4364.0,-169.71,186.08,-105.22,-100.2
62.31,204.0,16348.0,-556.0,-169.3,186.05,-91.95,-87.59
62.38,316.0,15300.0,2960.0,-182.7,172.25,-79.05,-76.32
62.45,488.0,14400.0,6180.0,-177.47,177.25,-66.77,-64.63
62.52,180.0,13300.0,8012.0,-189.24,165.28,-58.93,-54.08
62.58,632.0,10612.0,11596.0,-173.48,180.61,-42.46,-41.96
62.65,280.0,6928.0,13548.0,-172.57,181.48,-27.08,-29.25
62.72,368.0,3376.0,14648.0,-181.3,172.94,-12.98,-17.07
62.79,436.0,488.0,14732.0,-179.92,174.68,-1.9,-4.91
62.85,420.0,-2940.0,14672.0,-175.77,179.09,11.33,7.11
62.92,284.0,-6416.0,13780.0,-164.14,191.09,24.97,20.18
62.98,484.0,-9108.0,12284.0,-173.54,182.1,36.56,32.74
63.05,328.0,-10512.0,11008.0,-173.53,182.45,43.68,44.73
63.12,280.0,-13572.0,7972.0,-188.7,167.18,59.57,56.4
63.18,400.0,-15488.0,4236.0,-167.78,188.38,74.7,69.54
63.25,508.0,-16220.0,1304.0,-170.74,185.86,85.4,82.27
63.32,784.0,-16288.0,-2432.0,-174.53,182.34,98.49,94.83
63.38,952.0,-15860.0,-6648.0,-183.62,173.57,112.74,107.22
63.45,624.0,-14740.0,-8484.0,-177.38,180.29,119.92,119.79
63.52,448.0,-12656.0,-12136.0,-171.15,186.53,133.8,132.9
63.59,516.0,-9440.0,-14664.0,-172.34,185.42,147.23,146.15
63.66,700.0,-7040.0,-16408.0,-174.36,183.49,156.78,158.7
63.73,564.0,-3376.0,-17492.0,-179.25,178.43,169.08,170.9
63.8,396.0,-492.0,-17604.0,-175.99,181.53,178.4,182.98
63.87,204.0,2312.0,-17632.0,-190.33,166.79,-172.53,-166.35
63.94,496.0,6936.0,-16192.0,-165.51,191.06,-156.81,-153.28
64.01,520.0,9156.0,-14704.0,-170.28,185.98,-148.09,-141.01
64.08,264.0,12288.0,-12292.0,-179.11,176.53,-135.01,-129.25
64.16,384.0,14360.0,-8772.0,-174.08,181.04,-121.42,-116.83
64.23,340.0,15392.0,-5680.0,-181.66,173.06,-110.26,-105.22
64.3,424.0,16336.0,-2040.0,-179.72,174.55,-97.12,-93.36
64.37,424.0,15760.0,1396.0,-188.95,164.98,-84.94,-82.37
64.43,108.0,14988.0,4840.0,-168.61,185.09,-72.1,-70.13
64.5,428.0,13248.0,7872.0,-169.76,183.77,-59.28,-57.9
64.57,428.0,11128.0,10856.0,-170.85,182.56,-45.71,-45.6
64.64,456.0,7928.0,12920.0,-183.83,169.56,-31.53,-33.7
64.7,108.0,4708.0,14092.0,-178.14,175.45,-18.47,-21.49
64.77,400.0,1504.0,14740.0,-185.27,168.57,-5.83,-9.64
64.84,472.0,-1448.0,15216.0,-176.5,177.68,5.44,2.34
64.9,396.0,-5272.0,14312.0,-175.92,178.54,20.22,14.51
64.97,472.0,-7368.0,13248.0,-182.39,172.56,29.08,26.31
65.03,564.0,-9860.0,11816.0,-183.57,171.61,39.84,37.94
65.1,556.0,-13756.0,8140.0,-171.78,183.57,59.39,51.14
65.17,568.0,-15128.0,5468.0,-173.11,182.95,70.13,64.03
65.23,432.0,-16188.0,2492.0,-179.79,176.8,81.25,76.37
65.3,968.0,-16532.0,-1480.0,-177.37,179.64,95.12,89.04
65.37,820.0,-16352.0,-4544.0,-177.89,179.64,105.53,101.64
65.44,364.0,-15272.0,-7656.0,-166.82,191.05,116.63,115.14
65.51,552.0,-13332.0,-10872.0,-171.2,186.8,129.2,128.26
65.58,492.0,-11132.0,-13700.0,-176.37,181.71,140.9,141.1
65.65,432.0,-8396.0,-15796.0,-180.95,177.11,152.01,153.45
65.72,392.0,-4884.0,-17344.0,-181.53,176.41,164.27,165.58
65.79,504.0,-2448.0,-17220.0,-183.64,174.18,171.91,177.07
65.86,312.0,2084.0,-17972.0,-172.98,184.38,-173.39,-170.45
65.93,336.0,5628.0,-16700.0,-173.45,183.66,-161.38,-157.89
66.0,256.0,7416.0,-15600.0,-180.44,176.35,-154.57,-146.44
66.07,280.0,11460.0,-12424.0,-175.35,180.72,-137.31,-134.06
66.14,384.0,15232.0,-8500.0,-184.85,170.93,-119.16,-121.49
66.21,424.0,15428.0,-7224.0,-177.36,178.64,-115.09,-109.56
66.28,676.0,15388.0,-4888.0,-189.84,165.66,-107.62,-98.94
66.35,492.0,16336.0,856.0,-173.47,181.25,-87.0,-86.4
66.42,352.0,15588.0,4044.0,-171.84,182.83,-75.46,-74.39
66.49,252.0,13896.0,7448.0,-179.33,175.25,-61.81,-62.48
66.55,372.0,12376.0,10092.0,-179.42,175.22,-50.8,-50.67
66.62,336.0,9332.0,11848.0,-183.68,170.95,-38.23,-38.87
66.69,364.0,5820.0,13924.0,-168.53,186.15,-22.68,-25.91
66.76,192.0,2892.0,14916.0,-170.08,184.88,-10.97,-13.16
66.83,564.0,-356.0,15220.0,-168.94,186.22,1.34,-0.38
66.89,472.0,-4188.0,14432.0,-185.89,169.41,16.18,11.12
66.96,272.0,-7324.0,13332.0,-175.88,179.87,28.78,23.69
67.02,452.0,-10632.0,11412.0,-169.11,187.07,42.97,36.86
67.09,372.0,-12072.0,9524.0,-177.09,179.62,51.73,49.29
67.16,504.0,-14172.0,6828.0,-180.11,176.81,64.28,61.38
67.22,836.0,-15584.0,3228.0,-183.29,173.89,78.3,73.52
67.29,564.0,-16580.0,324.0,-181.29,176.3,88.88,85.63
67.36,320.0,-16292.0,-3336.0,-175.49,182.38,101.57,97.98
67.42,416.0,-15436.0,-6808.0,-175.03,183.15,113.8,110.9
67.49,796.0,-13740.0,-9912.0,-179.69,178.74,125.81,123.61
67.56,820.0,-11852.0,-12920.0,-176.25,182.37,137.47,136.44
67.63,648.0,-9788.0,-15072.0,-189.99,168.72,147.0,148.23
67.7,652.0,-5696.0,-17180.0,-173.66,184.94,161.66,161.17
67.77,364.0,-2132.0,-18080.0,-169.05,189.6,173.27,174.26
67.84,340.0,472.0,-17856.0,-174.34,184.22,-178.49,-173.52
67.91,284.0,4396.0,-16972.0,-181.48,176.64,-165.48,-161.69
67.98,292.0,6188.0,-16144.0,-188.17,169.62,-159.03,-150.72
68.05,448.0,10504.0,-13920.0,-175.11,181.94,-142.96,-138.42
68.13,396.0,13904.0,-10372.0,-171.63,185.02,-126.72,-125.31
68.2,88.0,14728.0,-8196.0,-173.02,183.51,-119.1,-112.92
68.27,356.0,15964.0,-4308.0,-169.43,186.55,-105.1,-100.51
68.34,264.0,16132.0,-420.0,-168.24,187.33,-91.49,-87.73
68.41,368.0,15516.0,2908.0,-182.32,172.91,-79.38,-76.44
68.47,524.0,14352.0,6352.0,-177.02,177.95,-66.13,-64.61
68.54,240.0,13252.0,7636.0,-189.05,165.79,-60.05,-54.16
68.61,420.0,10412.0,11216.0,-173.65,180.66,-42.87,-42.07
68.68,316.0,6976.0,13472.0,-172.18,182.07,-27.38,-29.34
68.74,640.0,3680.0,14788.0,-181.05,173.36,-13.97,-17.24
68.81,240.0,536.0,14912.0,-180.78,173.92,-2.06,-5.12
68.88,436.0,-3228.0,14904.0,-175.53,179.44,12.22,7.03
68.94,340.0,-6360.0,13864.0,-164.57,190.85,24.64,20.06
69.01,544.0,-9432.0,12092.0,-174.74,181.08,37.95,32.73
69.08,460.0,-10500.0,10812.0,-173.52,182.75,44.16,44.79
69.14,596.0,-13500.0,8176.0,-189.85,166.37,58.8,56.32
69.21,588.0,-15620.0,4488.0,-164.97,191.46,73.97,69.57
69.28,448.0,-16384.0,1404.0,-170.89,185.92,85.1,82.27
69.34,416.0,-16880.0,-2152.0,-174.85,182.21,97.27,94.69
69.41,820.0,-15504.0,-6520.0,-183.34,173.94,112.81,107.12
69.48,396.0,-15320.0,-8160.0,-176.07,181.7,118.04,119.6
69.55,464.0,-12836.0,-11888.0,-178.01,179.62,132.8,132.19
69.62,532.0,-9736.0,-14500.0,-175.46,182.23,146.12,145.19
69.69,400.0,-6692.0,-16536.0,-172.57,185.19,157.97,158.08
69.76,528.0,-3112.0,-17392.0,-178.02,179.73,169.86,170.52
69.83,348.0,-1672.0,-17676.0,-176.89,180.81,174.6,182.18
69.9,480.0,2528.0,-17600.0,-191.34,165.69,-171.83,-166.89
69.97,688.0,6780.0,-16464.0,-164.76,191.83,-157.62,-153.79
70.04,444.0,9552.0,-14512.0,-171.52,184.73,-146.65,-141.39
70.11,204.0,12028.0,-12056.0,-181.48,174.31,-135.07,-129.73
70.18,268.0,13700.0,-9796.0,-175.57,179.74,-125.57,-117.8
70.25,408.0,15856.0,-5804.0,-183.47,171.16,-110.1,-106.19
70.32,180.0,16464.0,-1528.0,-182.01,172.26,-95.3,-94.15
70.39,476.0,16020.0,1316.0,-184.81,169.36,-85.3,-82.85
70.46,404.0,15020.0,4776.0,-167.79,186.17,-72.36,-70.52
70.53,536.0,13736.0,7908.0,-171.85,181.94,-60.07,-58.45
70.6,284.0,10776.0,10628.0,-172.63,181.02,-45.4,-46.14
70.66,648.0,7904.0,12872.0,-185.61,168.1,-31.55,-34.27
70.73,312.0,5040.0,14276.0,-176.18,177.77,-19.45,-21.96
70.8,624.0,2020.0,14696.0,-170.07,184.1,-7.83,-9.35
70.86,540.0,-2144.0,14708.0,-166.11,188.2,8.29,3.52
70.93,256.0,-4516.0,14244.0,-177.09,177.63,17.59,15.23
71.0,424.0,-7064.0,13608.0,-170.69,184.24,27.43,27.46
71.06,724.0,-9652.0,12084.0,-184.92,170.0,38.62,38.74
71.13,484.0,-12956.0,9248.0,-174.51,180.4,54.48,51.13
71.19,516.0,-14992.0,5844.0,-175.24,179.96,68.7,63.69
71.26,472.0,-15784.0,2944.0,-181.61,174.02,79.43,75.71
71.33,200.0,-16268.0,-660.0,-179.72,176.24,92.32,87.94
71.39,672.0,-15984.0,-3984.0,-170.6,185.74,104.0,100.68
71.46,564.0,-15100.0,-7264.0,-169.26,187.36,115.69,113.95
71.53,460.0,-13696.0,-10436.0,-173.23,183.54,127.31,126.79
71.6,516.0,-10648.0,-13132.0,-171.61,185.2,140.96,140.01
71.67,416.0,-7188.0,-15668.0,-182.51,174.39,155.36,152.68
71.74,544.0,-5752.0,-16732.0,-174.82,182.32,161.03,164.91
71.81,596.0,-1152.0,-17856.0,-182.24,174.55,176.31,176.98
71.88,428.0,2828.0,-17604.0,-175.15,181.58,-170.87,-170.42
71.95,396.0,5556.0,-16952.0,-176.63,180.06,-161.85,-158.15
72.03,240.0,10348.0,-14368.0,-183.47,172.9,-144.24,-145.73
72.1,168.0,12404.0,-12236.0,-174.6,181.89,-134.61,-132.88
72.17,436.0,12144.0,-12152.0,-188.08,168.26,-135.02,-122.39
72.24,352.0,15616.0,-6544.0,-176.63,178.59,-112.74,-109.93
72.31,308.0,16524.0,-3044.0,-176.21,178.76,-100.44,-97.64
72.38,440.0,16256.0,-296.0,-175.96,178.75,-91.04,-85.85
72.45,264.0,15468.0,3640.0,-176.33,177.92,-76.76,-74.17
72.52,244.0,14556.0,6556.0,-182.05,171.97,-65.75,-62.92
72.58,260.0,11380.0,10324.0,-183.15,170.61,-47.79,-51.01
72.65,456.0,9332.0,11848.0,-173.46,180.59,-38.23,-38.58
72.72,204.0,6756.0,13808.0,-166.28,187.8,-26.07,-25.92
72.79,408.0,3500.0,14612.0,-175.25,178.82,-13.47,-13.81
72.86,472.0,-380.0,14872.0,-175.64,178.46,1.46,-1.41
72.92,412.0,-2972.0,14764.0,-189.84,164.51,11.38,9.39
72.98,464.0,-4784.0,14768.0,-181.82,172.71,17.95,20.38
73.05,448.0,-9272.0,12272.0,-167.98,186.34,37.07,33.23
73.12,688.0,-12756.0,9508.0,-168.7,185.94,53.3,46.42
73.18,692.0,-14360.0,6948.0,-185.31,169.93,64.18,58.41
73.25,360.0,-15524.0,3904.0,-170.15,185.59,75.88,71.29
73.32,452.0,-16524.0,592.0,-167.4,188.73,87.95,84.28
73.38,560.0,-16448.0,-2760.0,-178.68,177.77,99.53,96.29
73.45,656.0,-16244.0,-5936.0,-180.1,176.63,110.07,108.41
73.52,552.0,-14628.0,-9400.0,-182.51,174.36,122.72,120.8
73.59,404.0,-11760.0,-11904.0,-180.53,176.51,135.35,133.34
73.66,372.0,-10132.0,-14420.0,-171.62,185.6,144.91,146.3
73.73,504.0,-7080.0,-16032.0,-169.46,187.64,156.17,159.21
73.8,360.0,-3732.0,-17384.0,-173.83,183.0,167.88,171.51
73.87,252.0,776.0,-17812.0,-172.08,184.43,-177.51,-175.85
73.94,300.0,4140.0,-17376.0,-187.39,168.97,-166.6,-164.36
74.01,380.0,6984.0,-16532.0,-166.95,189.22,-157.1,-151.65
74.08,240.0,10120.0,-14148.0,-167.66,188.02,-144.42,-139.03
74.15,224.0,12288.0,-11744.0,-175.29,179.91,-133.7,-126.96
74.23,396.0,15164.0,-7280.0,-170.83,183.77,-115.64,-113.97
74.3,496.0,16180.0,-4420.0,-177.05,177.41,-105.28,-101.86
74.37,672.0,16316.0,-1612.0,-174.56,179.59,-95.64,-89.89
74.44,552.0,16172.0,2328.0,-189.86,163.77,-81.81,-79.01
74.5,404.0,14948.0,5416.0,-174.79,178.59,-70.08,-67.31
74.57,436.0,13032.0,8668.0,-168.32,184.82,-56.37,-55.01
74.64,408.0,10924.0,10908.0,-166.98,186.04,-45.04,-42.74
74.71,244.0,8280.0,12860.0,-179.73,173.08,-32.78,-31.09
74.77,488.0,4392.0,14392.0,-177.88,174.79,-16.97,-19.04
74.84,600.0,2476.0,14680.0,-187.94,164.91,-9.57,-8.09
74.91,372.0,-1564.0,15324.0,-174.41,178.31,5.83,3.8
74.97,552.0,-5200.0,14276.0,-171.95,180.95,20.01,15.93
75.04,388.0,-7672.0,13164.0,-181.92,171.33,30.23,27.63
75.1,464.0,-12048.0,10292.0,-181.7,171.77,49.49,40.17
75.17,668.0,-13496.0,7856.0,-171.42,182.86,59.8,53.31
75.24,608.0,-14612.0,5496.0,-169.02,185.82,69.39,66.06
75.3,624.0,-16220.0,2180.0,-176.64,178.49,82.35,78.4
75.37,528.0,-16484.0,-960.0,-175.44,180.03,93.33,90.68
75.44,708.0,-16260.0,-4180.0,-188.4,167.3,104.42,102.07
75.51,584.0,-15244.0,-8012.0,-165.09,190.81,117.73,115.62
75.58,804.0,-13424.0,-10828.0,-170.67,185.41,128.89,128.58
75.65,456.0,-10868.0,-13712.0,-172.26,183.85,141.6,141.59
75.72,564.0,-8856.0,-15472.0,-181.29,174.82,150.21,153.55
75.79,396.0,-4488.0,-17060.0,-183.37,172.45,165.26,165.53
75.86,292.0,-2028.0,-18028.0,-182.15,173.65,173.58,177.18
75.93,420.0,2184.0,-17704.0,-171.71,183.77,-172.97,-170.34
76.0,336.0,5580.0,-16488.0,-172.2,183.05,-161.3,-157.82
76.07,496.0,7192.0,-15960.0,-179.53,175.41,-155.74,-146.57
76.14,456.0,11844.0,-12908.0,-178.39,175.73,-137.46,-134.51
76.21,292.0,15772.0,-8200.0,-185.46,168.4,-117.47,-121.86
76.28,320.0,14988.0,-8116.0,-178.73,175.53,-118.44,-110.45
76.35,488.0,15356.0,-4652.0,-188.64,164.9,-106.85,-99.7
76.42,572.0,16016.0,636.0,-172.34,180.56,-87.73,-87.19
76.49,292.0,15372.0,4096.0,-170.99,181.86,-75.08,-75.11
76.56,368.0,13724.0,7468.0,-178.74,174.11,-61.45,-63.15
76.62,660.0,12188.0,10004.0,-179.11,173.9,-50.62,-51.32
76.69,-16.0,9452.0,11800.0,-181.87,171.2,-38.7,-39.48
76.76,588.0,5764.0,13800.0,-167.26,185.88,-22.67,-26.47
76.83,448.0,3196.0,14900.0,-169.9,183.57,-12.11,-13.87
76.9,296.0,-632.0,15332.0,-169.01,184.62,2.36,-0.99
76.96,404.0,-4576.0,14448.0,-186.79,167.12,17.57,10.59
77.03,380.0,-6056.0,13676.0,-177.2,177.32,23.88,22.53
77.09,388.0,-10464.0,11592.0,-168.56,186.08,42.07,35.67
77.16,532.0,-12220.0,9680.0,-173.62,181.58,51.62,48.33
77.23,608.0,-14416.0,6556.0,-181.14,174.34,65.55,60.53
77.29,556.0,-15860.0,3656.0,-178.69,177.22,77.02,72.81
77.36,860.0,-16452.0,-384.0,-175.0,181.28,91.34,85.56
77.43,584.0,-16156.0,-2984.0,-175.85,180.92,100.46,97.88
77.5,516.0,-15444.0,-6540.0,-175.57,181.43,112.95,110.61
77.56,824.0,-13880.0,-9720.0,-180.5,176.7,125.0,123.15
77.63,572.0,-11036.0,-12720.0,-178.56,178.8,139.05,135.98
77.71,700.0,-8924.0,-14944.0,-186.04,171.59,149.16,148.24
77.77,588.0,-5736.0,-16652.0,-167.2,190.51,160.99,161.45
77.84,520.0,-2408.0,-17540.0,-172.4,185.27,172.18,174.12
77.91,384.0,1056.0,-17548.0,-174.23,183.27,-176.56,-173.49
77.99,432.0,3752.0,-17312.0,-183.5,173.73,-167.77,-161.93
78.06,432.0,7020.0,-16356.0,-187.27,169.45,-156.77,-150.7
78.13,224.0,11556.0,-13112.0,-165.85,190.33,-138.61,-137.4
78.2,560.0,13276.0,-10824.0,-170.27,185.8,-129.19,-124.63
78.27,556.0,15052.0,-8480.0,-170.43,185.23,-119.4,-112.23
78.34,476.0,16152.0,-4628.0,-170.77,184.25,-105.99,-99.96
78.41,384.0,16560.0,-552.0,-169.17,185.31,-91.91,-87.6
78.48,256.0,15860.0,2800.0,-184.92,169.18,-79.99,-76.61
78.55,488.0,14868.0,5732.0,-179.27,174.52,-68.92,-65.29
78.61,596.0,12880.0,8976.0,-179.56,173.91,-55.13,-53.72
78.68,412.0,10332.0,11032.0,-172.07,181.28,-43.12,-41.67
78.75,128.0,7308.0,13072.0,-175.11,178.12,-29.21,-29.43
78.82,588.0,4352.0,14212.0,-183.69,169.56,-17.03,-17.88
78.88,520.0,-504.0,14944.0,-183.76,169.56,1.93,-5.52
78.95,556.0,-3132.0,14672.0,-172.24,181.73,12.05,6.8
79.01,604.0,-5488.0,14024.0,-166.92,187.5,21.37,19.3
79.08,492.0,-9664.0,12072.0,-177.41,177.19,38.68,31.9
79.15,592.0,-11716.0,10428.0,-176.27,178.92,48.33,44.28
79.21,532.0,-13168.0,8436.0,-180.49,175.05,57.35,56.23
79.28,620.0,-15192.0,4896.0,-165.63,190.01,72.14,69.21
79.35,572.0,-16084.0,1788.0,-172.35,183.54,83.66,81.65
79.41,496.0,-16140.0,-1384.0,-172.69,183.37,94.9,93.95
79.48,216.0,-15652.0,-5336.0,-185.01,171.14,108.83,105.86
79.55,360.0,-14648.0,-8576.0,-170.34,186.07,120.35,118.99
79.62,440.0,-13120.0,-11376.0,-165.24,191.29,130.93,132.16
79.69,404.0,-10984.0,-13652.0,-177.21,179.21,141.18,144.44
79.76,488.0,-7008.0,-16012.0,-175.25,180.88,156.36,157.14
79.83,428.0,-4036.0,-17024.0,-179.73,176.33,166.66,169.12
79.9,380.0,-332.0,-18004.0,-179.82,176.03,178.94,181.12
79.97,496.0,2484.0,-17440.0,-183.73,171.93,-171.89,-167.62
80.04,308.0,6428.0,-16384.0,-167.24,188.04,-158.58,-154.79
80.11,400.0,10684.0,-14188.0,-173.95,180.99,-143.02,-142.11
80.18,556.0,12636.0,-11960.0,-179.54,175.32,-133.43,-129.95
80.26,344.0,13852.0,-9980.0,-177.72,176.83,-125.77,-118.21
80.33,200.0,16500.0,-5424.0,-185.98,167.9,-108.2,-106.54
80.4,380.0,17080.0,-1244.0,-183.82,169.91,-94.17,-94.48
80.47,452.0,16252.0,1132.0,-173.53,180.23,-86.02,-82.57
80.53,268.0,15324.0,4576.0,-166.41,187.04,-73.37,-70.33
80.6,120.0,13484.0,7872.0,-173.01,180.17,-59.72,-58.34
80.67,356.0,11132.0,10204.0,-174.56,178.49,-47.49,-46.43
80.74,464.0,9008.0,11980.0,-188.58,164.38,-36.94,-35.35
