Tiempo,AccX,AccY,AccZ,GiroY,KalmanGiroY,Pitch,KalmanPitch
10.26,492.0,-3552.0,14620.0,2.17,0.26,13.66,13.45
10.32,360.0,-3540.0,15056.0,1.53,-0.36,13.23,13.41
10.38,416.0,-3640.0,14692.0,2.1,0.19,13.92,13.47
10.44,368.0,-3632.0,14512.0,1.97,0.1,14.05,13.54
10.5,480.0,-3512.0,14772.0,2.08,0.25,13.37,13.54
10.56,372.0,-3524.0,14816.0,2.03,0.19,13.38,13.53
10.63,416.0,-3580.0,14652.0,1.82,-0.03,13.73,13.55
10.69,492.0,-3564.0,14736.0,1.92,0.08,13.6,13.56
10.75,368.0,-3600.0,14824.0,1.98,0.14,13.65,13.58
10.81,376.0,-3496.0,14748.0,1.92,0.09,13.34,13.56
10.87,316.0,-3504.0,14832.0,1.85,0.0,13.29,13.53
10.93,456.0,-3528.0,14812.0,1.75,-0.12,13.4,13.51
10.99,308.0,-3476.0,14640.0,1.82,-0.06,13.36,13.49
11.06,368.0,-3432.0,14700.0,1.76,-0.13,13.14,13.45
11.12,412.0,-3456.0,14820.0,1.82,-0.09,13.13,13.41
11.18,404.0,-3392.0,14512.0,2.04,0.1,13.16,13.39
11.24,384.0,-3500.0,14544.0,2.05,0.1,13.53,13.41
11.3,484.0,-3364.0,14692.0,1.97,0.03,12.9,13.36
11.36,276.0,-3472.0,14728.0,1.67,-0.31,13.26,13.33
11.43,396.0,-3544.0,14612.0,1.87,-0.12,13.63,13.36
11.49,544.0,-3452.0,14684.0,2.34,0.37,13.23,13.36
11.55,260.0,-3448.0,15036.0,1.79,-0.18,12.92,13.31
11.61,412.0,-3660.0,14780.0,2.0,-0.01,13.91,13.37
11.67,316.0,-3540.0,14832.0,1.89,-0.08,13.42,13.37
11.73,400.0,-3548.0,14800.0,1.88,-0.08,13.48,13.38
11.8,404.0,-3532.0,14788.0,1.56,-0.39,13.43,13.36
11.86,300.0,-3580.0,15024.0,1.77,-0.17,13.4,13.36
11.92,284.0,-3532.0,15000.0,1.87,-0.07,13.25,13.34
11.98,392.0,-3608.0,14764.0,1.54,-0.41,13.73,13.36
12.05,312.0,-3600.0,14832.0,2.01,0.09,13.64,13.39
12.11,484.0,-3588.0,14696.0,1.76,-0.13,13.72,13.42
12.17,304.0,-3508.0,14700.0,1.81,-0.06,13.42,13.42
12.23,456.0,-3576.0,14592.0,1.87,-0.0,13.77,13.45
12.29,400.0,-3512.0,14724.0,1.88,0.03,13.42,13.45
12.35,320.0,-3400.0,14744.0,1.98,0.13,12.99,13.41
12.41,420.0,-3516.0,14700.0,1.82,-0.07,13.45,13.41
12.48,404.0,-3536.0,14744.0,2.01,0.13,13.49,13.43
12.54,400.0,-3456.0,14512.0,2.05,0.18,13.4,13.43
12.6,284.0,-3576.0,14552.0,2.05,0.18,13.81,13.48
12.66,280.0,-3392.0,14784.0,2.11,0.26,12.92,13.44
12.72,396.0,-3444.0,14720.0,2.0,0.11,13.17,13.42
12.78,312.0,-3588.0,14884.0,2.02,0.1,13.55,13.44
12.84,416.0,-3588.0,14848.0,1.9,-0.0,13.59,13.45
12.9,424.0,-3592.0,14820.0,1.95,0.05,13.62,13.47
12.97,392.0,-3584.0,14836.0,1.85,-0.03,13.58,13.48
13.03,412.0,-3428.0,14864.0,1.78,-0.09,12.99,13.43
13.09,328.0,-3488.0,14812.0,1.76,-0.15,13.25,13.4
13.15,336.0,-3524.0,14848.0,2.07,0.15,13.35,13.4
13.21,348.0,-3500.0,14812.0,1.82,-0.11,13.29,13.39
13.28,472.0,-3524.0,14860.0,2.1,0.17,13.34,13.39
13.34,376.0,-3448.0,14864.0,0.72,-1.22,13.06,13.29
13.4,372.0,-3744.0,14588.0,2.13,0.17,14.39,13.41
13.46,528.0,-3476.0,14732.0,2.07,0.2,13.28,13.41
13.52,376.0,-3324.0,14788.0,1.49,-0.4,12.67,13.31
13.58,300.0,-3588.0,14784.0,1.87,-0.07,13.64,13.34
13.64,324.0,-3636.0,15108.0,2.02,0.11,13.53,13.37
13.71,440.0,-3588.0,14856.0,1.76,-0.14,13.58,13.38
13.77,336.0,-3512.0,14768.0,1.9,0.02,13.38,13.38
13.83,352.0,-3544.0,14884.0,1.68,-0.2,13.39,13.37
13.89,376.0,-3648.0,14768.0,1.87,-0.01,13.88,13.42
13.95,416.0,-3440.0,14868.0,1.89,0.04,13.03,13.38
14.01,464.0,-3592.0,14648.0,1.47,-0.41,13.78,13.4
14.08,276.0,-3356.0,14720.0,2.02,0.17,12.84,13.35
14.14,384.0,-3372.0,14840.0,1.78,-0.11,12.8,13.29
14.2,252.0,-3564.0,14756.0,1.87,-0.06,13.58,13.32
14.26,352.0,-3484.0,14640.0,1.76,-0.15,13.39,13.32
14.32,408.0,-3600.0,14564.0,1.98,0.09,13.88,13.38
14.38,348.0,-3516.0,14736.0,1.98,0.13,13.42,13.39
14.45,472.0,-3412.0,14740.0,1.66,-0.19,13.03,13.34
14.51,360.0,-3604.0,14728.0,2.03,0.15,13.75,13.39
14.57,416.0,-3544.0,14760.0,1.8,-0.05,13.5,13.4
14.63,460.0,-3560.0,14636.0,1.82,-0.03,13.67,13.43
14.69,404.0,-3528.0,14596.0,1.87,0.05,13.59,13.45
14.75,344.0,-3580.0,14620.0,1.73,-0.08,13.76,13.48
14.82,448.0,-3544.0,14588.0,1.98,0.2,13.65,13.5
14.88,448.0,-3560.0,14748.0,2.0,0.23,13.57,13.52
14.94,308.0,-3436.0,14696.0,1.79,0.02,13.16,13.49
15.0,396.0,-3532.0,14708.0,2.07,0.27,13.5,13.5
15.06,448.0,-3364.0,14740.0,1.85,0.06,12.86,13.44
15.12,368.0,-3452.0,14764.0,1.91,0.06,13.16,13.42
15.18,424.0,-3480.0,14800.0,2.05,0.19,13.23,13.41
15.24,508.0,-3580.0,14860.0,1.99,0.11,13.55,13.43
15.3,352.0,-3580.0,14748.0,1.83,-0.04,13.64,13.45
15.37,440.0,-3528.0,14836.0,1.82,-0.03,13.38,13.44
15.43,272.0,-3512.0,14744.0,1.92,0.06,13.4,13.44
15.49,372.0,-3504.0,14612.0,2.08,0.22,13.49,13.45
15.55,500.0,-3548.0,14916.0,1.92,0.05,13.38,13.45
15.61,360.0,-3460.0,14820.0,2.25,0.38,13.14,13.44
15.67,456.0,-3672.0,15080.0,1.85,-0.04,13.69,13.46
15.73,388.0,-3544.0,14692.0,1.76,-0.11,13.56,13.47
15.8,484.0,-3480.0,14636.0,1.93,0.07,13.37,13.46
15.86,400.0,-3552.0,14784.0,1.79,-0.09,13.51,13.46
15.92,332.0,-3560.0,14844.0,1.68,-0.19,13.49,13.45
15.98,404.0,-3492.0,14748.0,1.79,-0.08,13.32,13.43
16.04,308.0,-3580.0,14724.0,1.98,0.11,13.67,13.46
16.11,560.0,-3480.0,14612.0,1.89,0.03,13.4,13.46
16.17,404.0,-3544.0,14732.0,1.96,0.1,13.53,13.47
16.23,356.0,-3560.0,14652.0,1.93,0.07,13.66,13.49
16.29,368.0,-3500.0,14776.0,2.06,0.22,13.33,13.49
16.35,376.0,-3420.0,14624.0,1.95,0.09,13.16,13.46
16.41,348.0,-3508.0,14632.0,1.92,0.03,13.48,13.46
16.47,332.0,-3576.0,14584.0,2.16,0.28,13.78,13.51
16.53,476.0,-3560.0,14724.0,1.89,0.03,13.59,13.52
16.59,352.0,-3536.0,14748.0,2.07,0.21,13.48,13.53
16.65,316.0,-3508.0,14956.0,1.97,0.11,13.2,13.5
16.72,356.0,-3544.0,14736.0,2.02,0.13,13.52,13.51
16.78,392.0,-3628.0,14760.0,2.14,0.26,13.81,13.56
16.84,348.0,-3560.0,14792.0,2.04,0.18,13.53,13.56
16.9,388.0,-3516.0,14848.0,2.0,0.14,13.32,13.55
16.96,308.0,-3536.0,14796.0,1.69,-0.2,13.44,13.52
17.02,464.0,-3580.0,14700.0,1.82,-0.06,13.69,13.54
17.08,320.0,-3480.0,14280.0,1.94,0.06,13.7,13.56
17.15,364.0,-3344.0,14652.0,1.95,0.09,12.86,13.49
17.21,484.0,-3456.0,14712.0,1.87,-0.05,13.22,13.46
17.27,348.0,-3512.0,14752.0,2.18,0.24,13.39,13.47
17.33,340.0,-3460.0,14776.0,1.79,-0.15,13.18,13.43
17.39,384.0,-3572.0,14720.0,1.79,-0.18,13.64,13.44
17.45,388.0,-3584.0,14612.0,1.98,0.03,13.78,13.48
17.51,372.0,-3608.0,14756.0,2.18,0.25,13.74,13.52
17.58,436.0,-3604.0,14784.0,1.98,0.07,13.7,13.54
17.64,416.0,-3584.0,14664.0,2.0,0.11,13.73,13.57
17.7,444.0,-3532.0,14620.0,2.03,0.15,13.58,13.58
17.76,364.0,-3492.0,14860.0,1.92,0.05,13.22,13.54
17.82,448.0,-3388.0,14960.0,2.03,0.13,12.76,13.47
17.88,344.0,-3468.0,14860.0,1.83,-0.13,13.14,13.43
17.94,380.0,-3556.0,14932.0,1.82,-0.16,13.4,13.42
18.01,252.0,-3660.0,14804.0,1.51,-0.48,13.89,13.44
18.07,404.0,-3548.0,14708.0,1.66,-0.29,13.56,13.43
18.13,396.0,-3500.0,14728.0,1.84,-0.1,13.37,13.42
18.19,380.0,-3532.0,14840.0,1.85,-0.1,13.39,13.41
18.25,312.0,-3608.0,14612.0,2.02,0.08,13.87,13.46
18.31,444.0,-3596.0,14648.0,2.07,0.16,13.79,13.51
18.38,396.0,-3512.0,14668.0,2.08,0.2,13.47,13.51
18.44,368.0,-3524.0,14712.0,1.87,-0.02,13.47,13.51
18.5,500.0,-3592.0,14672.0,2.01,0.11,13.76,13.54
18.56,392.0,-3484.0,14876.0,1.89,0.02,13.18,13.5
18.62,332.0,-3492.0,14576.0,1.9,-0.0,13.47,13.5
18.68,376.0,-3448.0,14588.0,1.82,-0.08,13.3,13.47
18.74,352.0,-3452.0,14716.0,1.94,0.02,13.2,13.45
18.81,460.0,-3560.0,14856.0,1.92,-0.03,13.48,13.45
18.87,272.0,-3632.0,14824.0,1.76,-0.18,13.77,13.47
18.93,444.0,-3544.0,14880.0,1.82,-0.09,13.4,13.46
18.99,324.0,-3468.0,14716.0,1.89,-0.03,13.26,13.44
19.05,496.0,-3584.0,14692.0,1.82,-0.11,13.71,13.46
19.12,220.0,-3636.0,15392.0,2.15,0.23,13.29,13.45
19.18,452.0,-3620.0,14736.0,1.69,-0.24,13.8,13.48
19.24,284.0,-3644.0,14892.0,2.08,0.18,13.75,13.51
19.3,304.0,-3400.0,14616.0,1.67,-0.21,13.1,13.46
19.36,452.0,-3360.0,14816.0,1.68,-0.23,12.78,13.38
19.42,332.0,-3592.0,14704.0,2.0,0.04,13.73,13.42
19.49,432.0,-3484.0,14648.0,1.78,-0.16,13.38,13.4
19.55,340.0,-3568.0,14812.0,2.11,0.18,13.54,13.43
19.61,380.0,-3524.0,15024.0,1.95,0.03,13.2,13.41
19.67,328.0,-3524.0,14700.0,2.02,0.07,13.48,13.42
19.73,376.0,-3524.0,14348.0,2.1,0.16,13.8,13.47
19.79,448.0,-3440.0,14752.0,1.92,0.01,13.13,13.43
19.85,448.0,-3520.0,14704.0,1.79,-0.14,13.46,13.43
19.92,452.0,-3448.0,14720.0,2.11,0.17,13.18,13.41
19.98,448.0,-3496.0,14636.0,2.09,0.14,13.43,13.42
20.04,296.0,-3528.0,14604.0,1.85,-0.1,13.58,13.43
20.1,420.0,-3464.0,14664.0,2.23,0.29,13.29,13.43
20.16,328.0,-3544.0,14956.0,1.9,-0.05,13.33,13.42
20.22,468.0,-3456.0,14692.0,1.89,-0.07,13.24,13.4
20.28,340.0,-3536.0,14836.0,1.89,-0.08,13.41,13.39
20.35,436.0,-3460.0,14520.0,1.94,-0.03,13.4,13.39
20.41,368.0,-3480.0,14544.0,1.81,-0.16,13.46,13.39
20.47,384.0,-3584.0,14644.0,1.92,-0.05,13.75,13.42
20.53,316.0,-3568.0,14740.0,1.79,-0.15,13.61,13.44
20.6,344.0,-3456.0,14800.0,1.89,-0.04,13.14,13.4
20.66,364.0,-3568.0,14840.0,1.95,0.01,13.52,13.42
20.72,356.0,-3548.0,14780.0,2.13,0.19,13.5,13.43
20.78,504.0,-3520.0,14856.0,1.85,-0.08,13.33,13.42
20.84,276.0,-3568.0,14768.0,1.82,-0.12,13.58,13.43
20.9,352.0,-3580.0,14788.0,1.81,-0.12,13.61,13.44
20.97,324.0,-3524.0,14492.0,2.02,0.11,13.67,13.47
21.03,472.0,-3524.0,14704.0,1.56,-0.33,13.48,13.45
21.09,332.0,-3560.0,14656.0,1.9,0.01,13.65,13.47
21.15,364.0,-3428.0,14784.0,1.89,0.01,13.05,13.43
21.21,352.0,-3524.0,14552.0,1.94,0.03,13.61,13.45
21.27,416.0,-3480.0,14640.0,2.03,0.13,13.37,13.45
21.33,308.0,-3500.0,14688.0,1.77,-0.13,13.4,13.44
21.4,372.0,-3500.0,14716.0,2.26,0.35,13.38,13.45
21.46,304.0,-3512.0,14536.0,1.81,-0.1,13.58,13.46
21.52,348.0,-3472.0,14696.0,2.02,0.12,13.29,13.45
21.58,316.0,-3520.0,14732.0,1.94,0.02,13.44,13.45
21.64,364.0,-3508.0,14824.0,1.98,0.07,13.31,13.44
21.7,472.0,-3544.0,14856.0,1.79,-0.14,13.42,13.43
21.76,272.0,-3504.0,14812.0,2.11,0.19,13.31,13.43
21.82,472.0,-3516.0,14840.0,2.02,0.08,13.33,13.42
21.89,428.0,-3444.0,14636.0,1.96,0.02,13.24,13.4
21.95,356.0,-3492.0,14756.0,1.81,-0.15,13.31,13.39
22.01,440.0,-3500.0,14772.0,1.82,-0.15,13.33,13.37
22.07,304.0,-3560.0,14720.0,1.84,-0.13,13.6,13.39
22.13,372.0,-3536.0,14696.0,1.91,-0.04,13.53,13.4
22.19,368.0,-3496.0,14480.0,1.88,-0.06,13.57,13.41
22.26,416.0,-3576.0,14784.0,1.92,-0.0,13.6,13.43
22.32,292.0,-3516.0,14536.0,2.02,0.1,13.6,13.46
22.38,372.0,-3588.0,14816.0,1.92,0.02,13.61,13.47
22.44,328.0,-3572.0,14712.0,2.01,0.12,13.65,13.5
22.5,248.0,-3572.0,14940.0,1.88,0.0,13.45,13.49
22.56,388.0,-3568.0,14640.0,1.89,0.0,13.7,13.51
22.62,380.0,-3580.0,14744.0,1.89,0.03,13.65,13.53
22.69,328.0,-3540.0,14680.0,1.69,-0.17,13.56,13.52
22.75,340.0,-3488.0,14712.0,1.85,-0.01,13.34,13.5
22.81,336.0,-3544.0,14780.0,1.81,-0.06,13.48,13.5
22.87,448.0,-3552.0,14676.0,1.91,0.04,13.61,13.51
22.93,260.0,-3496.0,14760.0,2.08,0.22,13.33,13.5
22.99,416.0,-3460.0,14592.0,1.62,-0.26,13.34,13.47
23.06,364.0,-3476.0,14544.0,1.99,0.11,13.44,13.48
23.12,304.0,-3444.0,14632.0,1.76,-0.13,13.24,13.45
23.18,424.0,-3528.0,14612.0,2.05,0.15,13.57,13.47
23.24,252.0,-3580.0,14692.0,2.09,0.19,13.69,13.5
23.3,428.0,-3400.0,14628.0,1.89,0.0,13.08,13.46
23.36,396.0,-3584.0,14764.0,1.8,-0.11,13.64,13.47
23.42,412.0,-3496.0,14676.0,1.82,-0.08,13.4,13.46
23.49,352.0,-3484.0,14872.0,1.8,-0.1,13.18,13.43
23.55,352.0,-3480.0,14680.0,2.05,0.13,13.34,13.42
23.61,376.0,-3460.0,14652.0,1.76,-0.17,13.29,13.4
23.67,388.0,-3504.0,14820.0,1.89,-0.05,13.3,13.39
23.73,464.0,-3580.0,14800.0,1.85,-0.09,13.6,13.4
23.8,460.0,-3520.0,14648.0,1.86,-0.07,13.51,13.41
23.86,400.0,-3488.0,14684.0,2.0,0.08,13.36,13.41
23.92,380.0,-3576.0,14696.0,1.9,-0.03,13.68,13.44
23.98,404.0,-3508.0,14704.0,1.99,0.09,13.42,13.44
24.04,464.0,-3492.0,14956.0,1.85,-0.05,13.14,13.41
24.1,404.0,-3596.0,14704.0,1.92,-0.01,13.74,13.44
24.17,356.0,-3500.0,14680.0,1.93,0.03,13.41,13.44
24.23,432.0,-3536.0,14740.0,1.86,-0.04,13.49,13.44
24.29,396.0,-3420.0,14724.0,2.08,0.18,13.08,13.41
24.35,384.0,-3504.0,14624.0,1.82,-0.11,13.47,13.41
24.41,428.0,-3616.0,14796.0,1.93,0.01,13.73,13.45
24.47,352.0,-3520.0,14592.0,1.69,-0.22,13.56,13.45
24.54,424.0,-3524.0,14680.0,1.96,0.07,13.5,13.46
24.6,400.0,-3580.0,14704.0,1.9,0.01,13.68,13.48
24.66,332.0,-3456.0,14660.0,2.06,0.19,13.26,13.47
24.72,364.0,-3548.0,14612.0,2.02,0.13,13.65,13.49
24.78,360.0,-3560.0,14608.0,1.87,-0.01,13.7,13.51
24.84,320.0,-3616.0,14768.0,2.16,0.3,13.76,13.56
24.9,456.0,-3500.0,14764.0,1.99,0.15,13.34,13.54
24.96,352.0,-3632.0,14840.0,1.87,0.01,13.75,13.56
25.02,396.0,-3564.0,14784.0,1.67,-0.17,13.55,13.55
25.09,448.0,-3576.0,14996.0,2.05,0.21,13.41,13.55
25.15,376.0,-3448.0,14836.0,1.91,0.05,13.08,13.51
25.21,364.0,-3588.0,14700.0,1.89,0.0,13.72,13.53
25.27,392.0,-3580.0,14448.0,1.79,-0.09,13.92,13.56
25.33,436.0,-3412.0,14760.0,1.94,0.09,13.02,13.51
25.39,464.0,-3416.0,14800.0,1.73,-0.16,13.0,13.45
25.46,352.0,-3572.0,14860.0,1.93,0.01,13.52,13.46
25.52,376.0,-3564.0,14644.0,2.22,0.3,13.68,13.5
25.58,488.0,-3604.0,14768.0,2.04,0.13,13.71,13.53
25.64,444.0,-3580.0,15216.0,1.67,-0.22,13.24,13.48
25.7,428.0,-3608.0,14584.0,1.92,0.01,13.9,13.53
25.76,260.0,-3544.0,14776.0,1.86,-0.02,13.49,13.52
25.82,488.0,-3548.0,14648.0,1.68,-0.2,13.62,13.52
25.89,368.0,-3540.0,14716.0,1.98,0.11,13.53,13.53
25.95,412.0,-3528.0,14912.0,2.08,0.2,13.31,13.52
26.01,400.0,-3416.0,14624.0,1.88,-0.01,13.15,13.48
26.07,248.0,-3420.0,14616.0,1.94,0.02,13.17,13.45
26.13,396.0,-3568.0,14664.0,1.81,-0.13,13.68,13.46
26.19,408.0,-3548.0,14684.0,1.79,-0.14,13.58,13.47
26.26,460.0,-3508.0,14636.0,1.94,0.02,13.48,13.47
26.32,420.0,-3572.0,14804.0,2.02,0.1,13.57,13.49
26.38,312.0,-3680.0,14748.0,1.77,-0.14,14.01,13.53
26.44,472.0,-3472.0,14728.0,2.02,0.15,13.26,13.51
26.5,228.0,-3548.0,14964.0,1.81,-0.08,13.34,13.49
26.56,720.0,-4444.0,14320.0,2.54,0.64,17.24,13.91
26.62,368.0,-3996.0,13132.0,-2.32,-3.95,16.92,14.0
26.69,556.0,-11152.0,11976.0,-0.86,-2.25,42.96,16.85
26.75,376.0,-12180.0,9420.0,-0.24,0.55,52.28,20.54
26.81,60.0,-13804.0,8252.0,-0.44,2.98,59.13,24.68
26.87,236.0,-15588.0,4752.0,0.64,6.94,73.05,30.04
26.94,544.0,-16308.0,1848.0,0.14,10.01,83.53,36.09
27.0,316.0,-16340.0,-1244.0,0.11,13.92,94.35,42.86
27.06,584.0,-16216.0,-4496.0,0.4,18.49,105.5,50.37
27.12,364.0,-15256.0,-7604.0,-0.27,22.4,116.49,58.5
27.19,656.0,-13884.0,-10320.0,-0.44,27.07,126.62,67.16
27.26,444.0,-11752.0,-13044.0,-0.66,31.85,137.98,76.46
27.32,672.0,-10200.0,-14532.0,0.2,37.9,144.94,85.91
27.39,484.0,-6012.0,-16680.0,0.07,42.77,160.18,96.23
27.45,564.0,-2964.0,-17428.0,0.2,48.33,170.35,106.82
27.52,312.0,752.0,-17940.0,0.58,54.11,-177.6,-242.03
27.58,348.0,3908.0,-17028.0,0.36,59.37,-167.07,-230.63
27.65,412.0,6816.0,-16228.0,0.7,65.13,-157.22,-218.97
27.72,216.0,10172.0,-13692.0,0.24,69.94,-143.39,-206.78
27.78,344.0,11564.0,-12572.0,0.39,75.52,-137.39,-194.81
27.85,416.0,14480.0,-8892.0,-0.4,79.66,-121.55,-182.15
27.92,568.0,15376.0,-7344.0,1.06,86.34,-115.53,-169.79
27.99,412.0,16340.0,-3416.0,0.03,90.0,-101.81,-157.15
28.05,456.0,16288.0,560.0,1.05,95.79,-88.03,-144.03
28.11,380.0,15764.0,3712.0,0.34,99.92,-76.75,-131.18
28.18,476.0,14404.0,6704.0,1.31,105.56,-65.04,-118.05
28.24,528.0,12856.0,8804.0,0.83,109.62,-55.6,-104.98
28.31,424.0,10024.0,11740.0,1.0,114.01,-40.49,-91.44
28.38,208.0,6924.0,13552.0,0.8,118.17,-27.06,-77.66
28.44,392.0,4108.0,14744.0,0.47,122.17,-15.57,-64.03
28.5,400.0,1044.0,15440.0,-0.19,125.64,-3.87,-50.41
28.57,296.0,-1796.0,14608.0,0.27,130.06,7.01,-36.85
28.63,464.0,-5544.0,14484.0,0.54,134.06,20.95,-23.15
28.7,308.0,-8276.0,13252.0,0.1,137.36,31.99,-9.42
28.76,416.0,-10616.0,11564.0,-1.4,139.37,42.55,3.94
28.82,336.0,-13316.0,8360.0,0.31,144.34,57.88,17.93
28.89,544.0,-14696.0,6040.0,0.01,147.42,67.66,31.51
28.95,628.0,-15872.0,3052.0,0.2,150.66,79.12,45.04
29.01,420.0,-16532.0,220.0,0.85,154.19,89.24,58.4
29.07,564.0,-16384.0,-3100.0,-0.75,155.18,100.71,71.46
29.14,516.0,-15396.0,-6284.0,-0.16,158.23,112.2,85.15
29.21,612.0,-14752.0,-9288.0,0.08,160.75,122.19,98.61
29.27,368.0,-12496.0,-12100.0,-0.68,161.99,134.08,111.82
29.34,492.0,-9892.0,-14284.0,0.27,164.83,145.3,125.48
29.41,568.0,-6788.0,-16408.0,0.49,166.74,157.53,138.8
29.47,380.0,-3108.0,-17344.0,0.22,168.08,169.84,152.09
29.54,384.0,-88.0,-17780.0,0.6,169.98,179.72,165.13
29.61,284.0,3204.0,-17372.0,0.4,171.04,-169.55,-182.35
29.67,400.0,6384.0,-16484.0,0.36,172.09,-158.83,-169.45
29.74,212.0,8588.0,-15132.0,0.43,173.07,-150.42,-156.98
29.81,400.0,12448.0,-12232.0,0.36,173.57,-134.5,-144.11
29.88,420.0,13432.0,-10248.0,1.64,175.68,-127.34,-131.55
29.94,140.0,15516.0,-6052.0,-0.32,174.09,-111.31,-118.71
30.01,580.0,16084.0,-3216.0,-0.16,174.89,-101.31,-106.13
30.08,368.0,16212.0,100.0,0.93,176.4,-89.65,-93.56
30.15,564.0,15792.0,3412.0,0.08,175.89,-77.81,-81.95
30.21,-68.0,14596.0,5988.0,0.82,177.0,-67.69,-70.26
30.27,632.0,12728.0,9036.0,0.94,177.33,-54.63,-58.42
30.34,284.0,10452.0,11248.0,0.51,177.23,-42.9,-46.59
30.4,324.0,8176.0,13156.0,0.49,177.52,-31.86,-34.65
30.47,328.0,5064.0,14488.0,0.44,177.71,-19.27,-22.81
30.53,388.0,1532.0,15044.0,0.37,177.94,-5.81,-10.79
30.6,560.0,-2116.0,15052.0,0.42,178.42,8.0,1.28
30.66,436.0,-4440.0,14696.0,-0.23,178.34,16.81,12.65
30.72,500.0,-7376.0,13520.0,0.56,179.49,28.62,24.65
30.78,556.0,-10260.0,11280.0,0.75,180.01,42.29,36.68
30.85,468.0,-12160.0,9500.0,-0.31,179.42,52.0,48.61
30.91,236.0,-14376.0,6632.0,0.38,180.4,65.23,60.73
30.98,464.0,-15688.0,3904.0,0.26,180.66,76.03,72.56
31.04,508.0,-16352.0,492.0,-0.09,180.6,88.28,84.42
31.1,304.0,-16416.0,-2724.0,-0.38,180.63,99.42,96.21
31.17,304.0,-16008.0,-6308.0,0.66,181.94,111.51,108.45
31.23,408.0,-14632.0,-8968.0,-0.28,181.26,121.5,120.6
31.3,444.0,-12244.0,-11840.0,0.06,181.68,134.04,132.98
31.37,672.0,-9844.0,-14152.0,0.14,181.85,145.18,145.25
31.44,544.0,-7244.0,-15852.0,-0.29,181.41,155.44,157.1
31.5,156.0,-5384.0,-16920.0,0.45,182.01,162.35,168.63
31.57,736.0,-1208.0,-17640.0,0.27,181.29,176.08,180.19
31.64,132.0,2248.0,-17520.0,0.44,181.1,-172.69,-168.31
31.7,324.0,5596.0,-16696.0,0.48,180.77,-161.47,-156.69
31.77,328.0,9416.0,-14832.0,0.01,179.88,-147.59,-144.88
31.84,576.0,10368.0,-13448.0,0.82,180.46,-142.37,-133.74
31.91,168.0,14228.0,-10204.0,-0.47,178.43,-125.65,-121.96
31.98,436.0,15384.0,-7148.0,2.12,180.69,-114.92,-109.98
32.04,188.0,16336.0,-4064.0,0.72,178.86,-103.97,-98.57
32.11,148.0,16392.0,-712.0,-0.27,177.4,-92.49,-87.42
32.18,516.0,15700.0,3388.0,0.8,178.03,-77.82,-76.02
32.24,232.0,14548.0,5804.0,0.97,178.04,-68.25,-64.98
32.3,316.0,13260.0,8568.0,0.71,177.5,-57.13,-53.96
32.37,304.0,10876.0,11156.0,0.38,176.9,-44.27,-42.77
32.43,376.0,7416.0,13132.0,0.38,176.77,-29.45,-31.03
32.5,240.0,4980.0,14168.0,0.21,176.73,-19.37,-19.65
32.56,364.0,1696.0,14976.0,0.44,176.98,-6.46,-8.08
32.62,584.0,-500.0,15020.0,0.17,176.85,1.91,2.79
32.68,452.0,-4424.0,14556.0,0.17,176.78,16.91,13.75
32.75,396.0,-7028.0,13176.0,-0.25,176.62,28.08,25.25
32.81,444.0,-10060.0,11832.0,0.43,177.54,40.37,37.04
32.88,300.0,-12636.0,9532.0,0.95,178.35,52.97,48.97
32.94,456.0,-14036.0,7172.0,-0.07,177.66,62.93,60.49
33.0,296.0,-15408.0,4248.0,-0.28,177.65,74.59,72.18
33.07,580.0,-16152.0,1112.0,-0.11,178.03,86.06,83.88
33.13,460.0,-16448.0,-2200.0,0.08,178.41,97.62,95.58
33.2,156.0,-15456.0,-5856.0,-2.27,176.23,110.75,107.31
33.26,284.0,-14420.0,-8608.0,-0.05,178.74,120.84,119.53
33.33,452.0,-12832.0,-11460.0,-0.16,178.74,131.77,131.61
33.4,132.0,-11196.0,-13888.0,0.11,179.02,141.13,143.59
33.47,400.0,-8168.0,-15432.0,0.19,178.89,152.11,155.29
33.53,536.0,-4628.0,-17180.0,0.25,178.68,164.92,166.92
33.6,328.0,-1908.0,-17588.0,-0.02,178.24,173.81,178.23
33.67,400.0,2064.0,-17552.0,0.15,178.02,-173.29,-170.14
33.74,252.0,5628.0,-16804.0,0.24,177.83,-161.48,-158.49
33.8,268.0,8728.0,-15244.0,0.5,177.83,-150.21,-146.89
33.87,400.0,11344.0,-13328.0,-1.02,176.03,-139.6,-135.51
33.94,320.0,13704.0,-10456.0,-0.19,176.5,-127.34,-123.67
34.01,512.0,14796.0,-8164.0,1.48,177.86,-118.89,-112.12
34.08,232.0,16212.0,-4220.0,0.26,176.04,-104.59,-100.71
34.15,544.0,16200.0,-412.0,0.28,175.73,-91.46,-89.14
34.21,400.0,15740.0,2624.0,2.17,177.41,-80.54,-78.05
34.27,528.0,14628.0,5668.0,1.33,176.35,-68.82,-66.95
34.34,276.0,12760.0,8436.0,0.56,175.43,-56.53,-55.76
34.4,412.0,11124.0,11208.0,0.79,175.58,-44.78,-44.51
34.47,484.0,7652.0,13168.0,0.72,175.49,-30.16,-32.74
34.53,508.0,4776.0,14200.0,0.55,175.54,-18.59,-21.15
34.6,264.0,1980.0,14792.0,0.41,175.63,-7.62,-9.63
34.66,212.0,-464.0,15140.0,0.44,175.83,1.76,1.34
34.72,224.0,-4416.0,14628.0,0.13,175.55,16.8,12.38
34.78,492.0,-6400.0,13864.0,-0.51,175.28,24.78,23.59
34.85,396.0,-9856.0,11940.0,0.05,175.94,39.54,35.38
34.91,672.0,-12476.0,9216.0,0.65,176.89,53.55,47.29
34.97,452.0,-14076.0,7516.0,0.09,176.86,61.9,58.83
35.04,612.0,-15372.0,4160.0,-0.34,176.69,74.86,70.5
35.1,616.0,-16176.0,1220.0,0.01,177.4,85.69,82.3
35.16,644.0,-16324.0,-1972.0,-0.01,177.67,96.89,93.88
35.23,572.0,-15520.0,-5332.0,-2.08,175.85,108.96,105.74
35.3,496.0,-14780.0,-8524.0,-0.18,178.03,119.97,117.99
35.36,524.0,-12992.0,-11536.0,-0.18,178.19,131.6,130.18
35.43,960.0,-10688.0,-13908.0,0.64,179.13,142.46,142.46
35.5,532.0,-8320.0,-15452.0,0.42,178.91,151.7,154.24
35.57,520.0,-4656.0,-17084.0,0.37,178.64,164.76,165.96
35.63,528.0,-1392.0,-17760.0,0.29,178.46,175.52,177.57
35.7,296.0,2220.0,-17388.0,0.01,178.0,-172.72,-170.83
35.77,508.0,5608.0,-16448.0,0.42,178.25,-161.17,-159.05
35.83,300.0,8684.0,-15028.0,0.59,178.23,-149.98,-147.34
35.9,420.0,11788.0,-12920.0,-0.87,176.55,-137.62,-135.67
35.97,12.0,13816.0,-10512.0,-0.08,177.17,-127.27,-123.76
36.04,584.0,14904.0,-8228.0,1.11,178.06,-118.9,-112.35
36.11,444.0,16156.0,-4080.0,0.22,176.59,-104.17,-100.84
36.18,308.0,16380.0,-480.0,-0.18,175.9,-91.68,-89.27
36.24,276.0,15724.0,2916.0,2.05,177.92,-79.49,-77.85
36.3,204.0,14832.0,5756.0,1.02,176.74,-68.79,-66.74
36.37,376.0,12728.0,8272.0,0.68,176.23,-56.98,-55.59
36.43,224.0,10820.0,11004.0,0.49,175.92,-44.52,-44.31
36.5,256.0,7520.0,13072.0,0.39,175.8,-29.91,-32.51
36.56,468.0,5136.0,14284.0,0.56,176.2,-19.78,-21.04
36.63,332.0,1992.0,14976.0,0.44,176.18,-7.58,-9.49
36.69,624.0,-560.0,15060.0,0.12,176.03,2.13,1.51
36.75,544.0,-4524.0,14532.0,0.37,176.33,17.29,12.62
36.81,252.0,-6908.0,13520.0,-0.43,175.93,27.06,24.09
36.88,656.0,-10140.0,11652.0,0.27,176.87,41.03,36.04
36.94,472.0,-12444.0,9460.0,0.9,177.93,52.76,48.02
37.0,464.0,-14160.0,7228.0,-0.02,177.4,62.96,59.63
37.07,588.0,-15596.0,4392.0,0.12,177.83,74.27,71.39
37.13,524.0,-16392.0,940.0,0.06,178.01,86.72,83.07
37.19,480.0,-16516.0,-2368.0,-0.06,178.19,98.16,94.55
37.26,324.0,-15220.0,-5844.0,-2.39,176.17,111.01,106.58
37.33,768.0,-14592.0,-8688.0,-0.13,178.8,120.77,118.87
37.39,396.0,-12836.0,-11528.0,-0.35,178.74,131.93,131.04
37.46,444.0,-10624.0,-13832.0,-0.07,179.1,142.47,143.23
37.53,404.0,-7856.0,-15688.0,-0.13,178.97,153.4,155.27
37.6,472.0,-4392.0,-17076.0,0.31,179.25,165.58,167.18
37.67,236.0,-1132.0,-17340.0,-0.16,178.64,176.26,178.75
37.73,580.0,2068.0,-17536.0,0.79,179.37,-173.27,-169.59
37.8,292.0,5524.0,-16684.0,0.45,178.72,-161.68,-157.98
37.87,288.0,9188.0,-14996.0,0.09,178.04,-148.5,-146.23
37.94,380.0,10460.0,-13580.0,0.45,178.2,-142.39,-135.1
38.0,368.0,13692.0,-10504.0,-0.67,176.44,-127.49,-123.48
38.07,412.0,15592.0,-6928.0,2.24,179.0,-113.96,-111.34
38.14,496.0,15924.0,-3900.0,0.6,177.14,-103.76,-99.87
38.21,264.0,16360.0,-728.0,0.25,176.45,-92.55,-88.63
38.27,272.0,15532.0,3416.0,1.08,176.93,-77.6,-77.3
38.34,376.0,14492.0,5792.0,1.29,177.12,-68.21,-66.17
38.4,264.0,12668.0,8624.0,0.34,176.0,-55.75,-54.96
38.47,344.0,10692.0,11008.0,0.39,175.97,-44.17,-43.71
38.53,212.0,7932.0,13208.0,0.45,176.0,-30.99,-32.08
38.59,132.0,5312.0,14084.0,0.03,175.67,-20.66,-20.78
38.66,384.0,1700.0,14924.0,0.64,176.29,-6.5,-9.14
38.72,448.0,-1816.0,14868.0,0.35,176.23,6.96,2.35
38.78,344.0,-4364.0,14540.0,0.63,176.89,16.71,13.51
38.85,420.0,-7844.0,13028.0,0.23,176.76,31.05,25.36
38.91,460.0,-10152.0,11644.0,0.4,177.42,41.08,37.04
38.97,572.0,-12288.0,9956.0,0.42,177.78,50.98,48.73
39.04,308.0,-14504.0,6792.0,-0.05,177.49,64.91,60.46
39.1,656.0,-15612.0,3724.0,0.03,177.95,76.58,72.39
39.16,548.0,-16220.0,484.0,0.0,178.27,88.29,84.14
39.23,528.0,-16188.0,-2216.0,-0.03,178.59,97.79,95.49
39.29,808.0,-15884.0,-6436.0,0.44,179.26,112.06,107.71
39.36,440.0,-14512.0,-8836.0,-0.21,178.97,121.34,119.78
39.43,408.0,-12844.0,-11764.0,-0.24,179.07,132.49,131.93
39.49,500.0,-10276.0,-14080.0,0.21,179.57,143.88,144.2
39.56,476.0,-7284.0,-16080.0,-0.48,178.85,155.63,156.21
39.63,252.0,-4968.0,-17096.0,0.05,179.33,163.8,167.83
39.7,496.0,-520.0,-17548.0,0.22,179.16,178.3,179.58
39.76,344.0,2468.0,-17640.0,0.42,179.24,-172.04,-169.07
39.83,440.0,5620.0,-16792.0,0.54,179.11,-161.5,-157.46
39.9,408.0,9120.0,-14964.0,0.16,178.38,-148.64,-145.77
39.96,284.0,10920.0,-12980.0,0.92,178.89,-139.93,-134.37
40.03,372.0,13180.0,-10812.0,-0.08,177.41,-129.36,-122.98
40.1,336.0,15604.0,-6164.0,1.37,178.3,-111.56,-110.67
40.17,588.0,16312.0,-3920.0,0.54,177.4,-103.51,-99.23
40.24,164.0,16088.0,-616.0,0.17,176.65,-92.19,-88.0
40.3,344.0,15608.0,3308.0,0.86,176.98,-78.03,-76.79
40.36,380.0,14648.0,6036.0,1.29,177.3,-67.6,-65.64
40.43,428.0,13224.0,8668.0,0.89,176.74,-56.76,-54.55
40.49,308.0,10700.0,11176.0,0.63,176.29,-43.75,-43.28
40.56,304.0,7948.0,13172.0,0.15,175.76,-31.11,-31.72
40.62,52.0,5420.0,14300.0,0.27,175.94,-20.76,-20.45
40.69,500.0,1856.0,14892.0,0.63,176.27,-7.1,-9.09
40.75,524.0,-1584.0,14880.0,0.35,176.16,6.08,2.29
40.81,484.0,-4356.0,14488.0,0.44,176.56,16.73,13.45
40.87,340.0,-7928.0,13008.0,0.02,176.43,31.36,25.31
40.94,720.0,-10336.0,11536.0,0.08,177.0,41.86,37.06
41.0,508.0,-12184.0,9668.0,0.5,177.82,51.57,48.8
41.06,392.0,-14288.0,6588.0,-0.13,177.42,65.25,60.56
41.13,508.0,-15380.0,3404.0,-0.31,177.64,77.52,72.56
41.19,260.0,-16432.0,692.0,-0.18,178.18,87.59,84.38
41.25,580.0,-16408.0,-2316.0,-0.08,178.55,98.03,95.91
41.32,664.0,-15916.0,-6400.0,0.15,178.95,111.91,108.05
41.39,332.0,-14648.0,-8828.0,0.02,179.15,121.08,120.07
41.45,812.0,-12664.0,-11700.0,-0.05,179.17,132.73,132.05
41.52,360.0,-10684.0,-14116.0,0.27,179.55,142.88,144.2
41.59,344.0,-7508.0,-15540.0,-0.47,178.7,154.21,156.05
41.66,272.0,-5292.0,-16992.0,0.47,179.47,162.7,167.58
41.72,596.0,-1488.0,-16532.0,-0.61,177.98,174.86,178.91
41.79,404.0,2156.0,-17548.0,0.52,178.76,-173.0,-169.45
41.86,276.0,5768.0,-16820.0,0.6,178.53,-161.07,-157.8
41.93,452.0,9272.0,-15208.0,-0.11,177.54,-148.63,-146.12
41.99,352.0,10800.0,-13152.0,0.72,178.15,-140.61,-134.63
42.06,504.0,13188.0,-10732.0,0.12,177.03,-129.14,-123.22
42.13,396.0,15752.0,-6684.0,2.31,178.7,-112.99,-111.18
42.2,284.0,16488.0,-4000.0,0.75,176.98,-103.64,-99.72
42.27,700.0,16100.0,-668.0,0.45,176.34,-92.38,-88.49
42.33,284.0,15732.0,3336.0,1.12,176.68,-78.03,-77.24
42.39,412.0,14584.0,6048.0,1.22,176.71,-67.48,-66.06
42.46,516.0,12724.0,8696.0,0.85,176.21,-55.65,-54.83
42.52,480.0,10704.0,10888.0,0.37,175.66,-44.51,-43.65
42.59,216.0,7920.0,13136.0,0.64,175.86,-31.09,-32.05
42.65,204.0,5140.0,14360.0,0.35,175.65,-19.69,-20.65
42.72,484.0,1832.0,15204.0,0.85,176.23,-6.87,-9.07
42.78,472.0,-1648.0,14988.0,0.49,176.06,6.27,2.33
42.84,332.0,-4428.0,14624.0,0.37,176.28,16.85,13.48
42.9,484.0,-7904.0,12872.0,0.2,176.39,31.55,25.35
42.97,708.0,-10384.0,11420.0,0.27,176.99,42.28,37.14
43.03,380.0,-12112.0,9820.0,0.65,177.79,50.97,48.82
43.09,420.0,-14448.0,6676.0,-0.1,177.22,65.2,60.56
43.16,880.0,-15716.0,3704.0,-0.01,177.71,76.74,72.48
43.22,632.0,-16248.0,720.0,-0.15,177.92,87.46,84.28
43.29,440.0,-16712.0,-2484.0,-0.18,178.16,98.45,95.84
43.35,920.0,-15916.0,-6332.0,0.89,179.45,111.69,108.0
43.42,396.0,-14464.0,-9028.0,-0.01,178.87,121.97,120.1
43.48,448.0,-12556.0,-11556.0,-0.2,178.83,132.63,132.21
43.55,568.0,-10680.0,-14436.0,0.03,179.1,143.51,144.39
43.62,408.0,-7480.0,-16180.0,-0.48,178.51,155.19,156.31
43.69,396.0,-4004.0,-16856.0,-0.23,178.67,166.64,168.18
43.76,612.0,-372.0,-17660.0,0.43,179.19,178.79,180.11
43.82,432.0,2168.0,-17232.0,0.05,178.69,-172.83,-168.7
43.89,356.0,5832.0,-16500.0,0.72,179.01,-160.53,-157.04
43.96,292.0,8956.0,-15144.0,0.11,178.1,-149.4,-145.5
44.02,572.0,11244.0,-12904.0,1.02,178.67,-138.93,-134.03
44.09,284.0,13312.0,-11224.0,0.69,177.92,-130.14,-122.73
44.16,332.0,15876.0,-5936.0,1.67,178.25,-110.5,-110.51
44.23,424.0,16504.0,-3412.0,0.54,177.12,-101.68,-98.89
44.29,336.0,16276.0,-584.0,0.41,176.75,-92.05,-87.69
44.36,100.0,16040.0,3364.0,0.52,176.48,-78.16,-76.55
44.42,604.0,14300.0,6216.0,1.45,177.27,-66.51,-65.31
44.49,132.0,12920.0,8536.0,0.53,176.24,-56.55,-54.26
44.55,316.0,10496.0,10900.0,0.44,175.96,-43.92,-43.05
44.62,592.0,8048.0,13104.0,0.22,175.67,-31.56,-31.58
44.68,428.0,5340.0,14340.0,0.74,176.19,-20.42,-20.28
44.75,400.0,1860.0,15064.0,0.6,176.03,-7.04,-8.76
44.81,304.0,-2064.0,14896.0,0.49,176.07,7.89,2.77
44.87,492.0,-4424.0,14676.0,0.3,176.31,16.78,13.87
44.93,468.0,-8036.0,13272.0,0.64,176.9,31.19,25.7
45.0,492.0,-10268.0,11472.0,0.64,177.37,41.83,37.42
45.06,468.0,-12300.0,9420.0,0.11,177.2,52.55,49.2
45.12,628.0,-14500.0,6616.0,0.18,177.56,65.47,60.95
45.19,440.0,-15648.0,3664.0,0.08,177.84,76.82,72.68
45.25,544.0,-16312.0,524.0,-0.31,177.8,88.16,84.36
45.31,304.0,-16472.0,-2764.0,-0.58,177.85,99.53,96.0
45.38,536.0,-16140.0,-6272.0,0.7,179.42,111.24,108.09
45.44,320.0,-14632.0,-9032.0,-0.12,178.86,121.69,120.15
45.51,340.0,-12544.0,-11784.0,-0.09,179.03,133.21,132.34
45.58,412.0,-9872.0,-14368.0,0.39,179.58,145.51,144.74
45.65,336.0,-6976.0,-16148.0,-0.18,179.08,156.64,156.64
45.71,500.0,-3880.0,-17044.0,-0.24,179.01,167.18,168.55
45.78,296.0,-232.0,-18016.0,0.28,179.42,179.26,180.51
45.85,456.0,2504.0,-17540.0,0.5,179.53,-171.88,-168.2
45.92,332.0,5792.0,-16428.0,0.39,179.1,-160.58,-156.59
45.98,280.0,8764.0,-15192.0,-0.02,178.34,-150.02,-145.14
46.05,432.0,11776.0,-12316.0,1.58,179.53,-136.28,-133.21
46.12,636.0,13132.0,-10520.0,1.4,179.08,-128.7,-121.77
46.19,32.0,16056.0,-6012.0,0.17,177.24,-110.53,-109.72
46.25,188.0,16136.0,-3220.0,0.11,177.12,-101.29,-98.32
46.32,336.0,16092.0,-468.0,0.36,177.1,-91.67,-87.11
46.39,100.0,15988.0,3208.0,0.32,176.67,-78.65,-76.08
46.45,-40.0,14684.0,6208.0,1.36,177.49,-67.08,-64.94
46.51,516.0,12784.0,8932.0,0.86,176.81,-55.06,-53.74
46.58,236.0,10424.0,11112.0,0.33,176.16,-43.17,-42.51
46.64,220.0,8060.0,13012.0,0.47,176.24,-31.78,-31.08
46.71,280.0,5092.0,14312.0,0.34,176.06,-19.58,-19.75
46.77,584.0,1680.0,14980.0,0.07,175.8,-6.4,-8.23
46.83,64.0,-2012.0,15096.0,0.37,176.25,7.59,3.22
46.89,396.0,-4280.0,14844.0,0.31,176.57,16.08,14.04
46.96,360.0,-7688.0,13336.0,0.45,176.88,29.96,25.72
47.02,632.0,-10300.0,11396.0,0.74,177.52,42.11,37.48
47.09,656.0,-12320.0,9380.0,-0.5,176.67,52.72,49.24
47.15,560.0,-14568.0,6328.0,0.2,177.66,66.52,61.27
47.21,632.0,-15556.0,3728.0,-0.08,177.82,76.52,72.93
47.28,548.0,-16416.0,368.0,-0.18,178.02,88.72,84.82
47.34,400.0,-16612.0,-2708.0,0.01,178.54,99.26,96.43
47.4,656.0,-16008.0,-6088.0,0.82,179.6,110.82,108.27
47.47,648.0,-14084.0,-9412.0,0.21,179.2,123.75,120.55
47.54,536.0,-12428.0,-12140.0,0.25,179.51,134.33,132.67
47.6,376.0,-10016.0,-14220.0,-0.02,179.39,144.84,144.79
47.67,372.0,-6632.0,-16592.0,0.21,179.62,158.21,157.23
47.74,400.0,-3720.0,-17112.0,0.01,179.5,167.74,169.0
47.81,416.0,16.0,-17664.0,0.52,179.9,-179.95,-179.14
47.87,388.0,3088.0,-17428.0,0.23,179.54,-169.95,-167.68
47.94,464.0,6124.0,-16596.0,0.24,179.35,-159.75,-156.03
48.01,360.0,8592.0,-14980.0,0.28,179.08,-150.16,-144.61
48.07,236.0,12048.0,-12212.0,0.99,179.31,-135.39,-132.82
48.14,284.0,13572.0,-10344.0,1.88,179.97,-127.31,-121.22
48.21,304.0,15520.0,-6008.0,-0.46,177.1,-111.16,-109.3
48.28,272.0,15988.0,-3312.0,-0.18,177.23,-101.7,-97.65
48.35,192.0,16152.0,-72.0,0.92,177.97,-90.26,-86.15
48.41,128.0,16344.0,3344.0,0.47,177.16,-78.44,-75.34
48.48,616.0,14588.0,6152.0,1.06,177.48,-67.13,-64.28
48.54,416.0,12396.0,9124.0,0.92,177.09,-53.65,-52.98
48.6,244.0,10668.0,10856.0,0.74,176.86,-44.5,-41.93
48.67,384.0,8000.0,13180.0,0.56,176.46,-31.26,-30.5
48.73,716.0,4384.0,14304.0,0.55,176.38,-17.04,-18.94
48.8,536.0,2372.0,14924.0,0.5,176.49,-9.03,-7.75
48.86,328.0,-1672.0,15372.0,0.24,176.12,6.21,3.5
48.92,316.0,-4972.0,14756.0,-0.01,176.11,18.62,14.71
48.99,404.0,-7952.0,13096.0,0.31,176.75,31.27,26.61
49.05,344.0,-10092.0,11604.0,0.52,177.36,41.01,38.15
49.11,544.0,-13020.0,8884.0,-0.56,176.51,55.69,50.15
49.18,472.0,-14616.0,6148.0,0.15,177.69,67.19,62.16
49.24,372.0,-15692.0,3060.0,0.04,178.01,78.97,73.99
49.3,796.0,-16384.0,-336.0,0.84,179.23,91.17,85.93
49.37,200.0,-16548.0,-2956.0,-0.52,178.31,100.13,97.5
49.43,424.0,-15384.0,-6040.0,-0.09,178.96,111.44,109.6
49.5,684.0,-14992.0,-9336.0,-0.48,178.73,121.91,121.68
49.57,492.0,-12292.0,-12400.0,0.39,179.62,135.25,133.96
49.64,380.0,-9728.0,-14652.0,0.04,179.38,146.42,146.11
49.7,712.0,-6628.0,-16312.0,0.82,180.19,157.89,158.06
49.77,576.0,-3124.0,-17524.0,0.2,179.55,169.89,169.97
49.83,188.0,-628.0,-17552.0,0.5,179.84,177.95,181.5
49.9,444.0,3604.0,-17604.0,0.19,179.23,-168.43,-166.96
49.97,508.0,6832.0,-16084.0,0.05,178.97,-156.99,-155.11
50.04,332.0,9552.0,-14532.0,1.02,179.77,-146.68,-143.38
50.1,456.0,12204.0,-12444.0,-0.17,178.3,-135.56,-131.8
50.17,352.0,15084.0,-8964.0,0.21,178.35,-120.72,-119.53
50.24,240.0,14932.0,-7324.0,-0.25,177.78,-116.13,-108.46
50.31,320.0,16364.0,-3368.0,0.36,177.73,-101.63,-96.86
50.38,380.0,16372.0,612.0,1.61,178.56,-87.86,-85.32
50.44,472.0,15276.0,3772.0,0.17,176.9,-76.13,-74.36
50.5,92.0,13896.0,6668.0,0.78,177.36,-64.37,-63.11
50.57,652.0,12696.0,8676.0,1.2,177.67,-55.65,-52.29
50.63,404.0,9704.0,11688.0,0.96,177.14,-39.7,-40.78
50.69,380.0,6840.0,13200.0,0.88,177.15,-27.39,-29.19
50.76,444.0,4152.0,14536.0,0.6,177.02,-15.94,-17.61
50.82,560.0,520.0,15348.0,0.37,176.94,-1.94,-5.79
50.88,568.0,-1836.0,15104.0,0.27,177.16,6.93,5.22
50.95,320.0,-5556.0,14348.0,0.25,177.29,21.17,16.57
51.01,516.0,-7612.0,12888.0,0.7,178.13,30.57,28.11
51.07,396.0,-10136.0,11936.0,-0.77,176.86,40.34,39.4
51.14,548.0,-13340.0,8624.0,0.11,177.83,57.12,51.66
51.2,448.0,-14580.0,5984.0,0.07,178.24,67.69,63.42
51.26,548.0,-15868.0,3204.0,0.22,178.75,78.58,75.13
51.33,648.0,-16464.0,-36.0,0.92,179.74,90.13,86.87
51.39,732.0,-16180.0,-3220.0,-0.65,178.45,101.26,98.29
51.46,692.0,-15480.0,-6468.0,-0.43,178.92,112.68,110.43
51.52,360.0,-13596.0,-9652.0,-0.89,178.64,125.37,122.79
51.59,744.0,-12048.0,-12272.0,0.44,180.19,135.53,135.01
51.66,340.0,-9652.0,-14760.0,0.14,179.93,146.82,147.12
51.72,448.0,-6116.0,-16292.0,0.15,179.92,159.42,159.12
51.79,284.0,-3352.0,-17512.0,0.61,180.41,169.16,170.9
51.86,560.0,-524.0,-17556.0,-0.03,179.62,178.29,182.35
51.92,524.0,2888.0,-17624.0,0.63,179.92,-170.69,-166.24
51.99,220.0,7148.0,-16228.0,0.39,179.3,-156.23,-154.36
52.06,368.0,10004.0,-14148.0,0.32,179.07,-144.74,-142.54
52.13,208.0,12012.0,-12428.0,-0.08,178.48,-135.98,-130.92
52.2,356.0,14564.0,-9024.0,-0.22,177.9,-121.78,-118.88
52.27,372.0,15336.0,-6104.0,1.05,178.92,-111.7,-107.18
52.33,248.0,15976.0,-3140.0,1.4,178.87,-101.12,-95.76
52.4,212.0,16164.0,1000.0,1.18,178.19,-86.46,-84.21
52.46,436.0,15360.0,3888.0,0.57,177.38,-75.8,-73.13
52.53,336.0,14216.0,6820.0,1.0,177.58,-64.37,-62.01
52.59,272.0,11872.0,9732.0,1.53,177.9,-50.66,-50.59
52.66,476.0,9544.0,12104.0,0.91,177.28,-38.26,-39.1
52.72,464.0,6568.0,13776.0,0.47,176.91,-25.49,-27.49
52.79,504.0,4136.0,14672.0,0.51,177.13,-15.74,-16.07
52.85,284.0,-276.0,15016.0,0.16,176.8,1.05,-4.1
52.91,328.0,-2616.0,14960.0,0.26,177.34,9.92,7.05
52.97,356.0,-5620.0,14140.0,0.4,177.72,21.68,18.29
53.03,548.0,-8008.0,13176.0,-0.22,177.39,31.29,29.69
53.1,492.0,-11388.0,10548.0,-1.14,176.6,47.19,41.68
53.16,436.0,-14128.0,8772.0,-0.27,177.93,58.16,53.82
53.23,388.0,-14892.0,5440.0,-0.12,178.45,69.93,65.77
53.29,568.0,-15908.0,2384.0,-0.76,178.17,81.48,77.67
53.36,784.0,-16008.0,-948.0,-0.76,178.48,93.39,89.59
53.42,724.0,-15800.0,-3940.0,0.08,179.64,104.0,101.42
53.49,468.0,-15356.0,-7252.0,0.42,180.2,115.28,113.59
53.55,460.0,-13908.0,-10076.0,0.4,180.32,125.92,125.61
53.62,560.0,-11168.0,-12860.0,-0.18,179.78,139.03,137.89
53.69,1296.0,-9744.0,-14580.0,0.66,180.72,146.24,149.84
53.76,1020.0,-7624.0,-18576.0,-0.44,179.31,157.69,161.49
53.83,264.0,-2404.0,-18592.0,-0.73,178.69,172.63,173.62
53.89,224.0,704.0,-17908.0,-0.06,179.27,-177.75,-174.65
53.96,212.0,4968.0,-17412.0,0.63,179.69,-164.08,-162.7
54.03,516.0,7628.0,-16284.0,1.33,180.27,-154.9,-151.0
54.1,280.0,10512.0,-14216.0,-0.09,178.51,-143.52,-139.45
54.17,328.0,13384.0,-11348.0,0.24,178.49,-130.29,-127.38
54.24,472.0,14736.0,-8328.0,1.21,179.21,-119.47,-115.57
54.3,444.0,15564.0,-5000.0,0.56,178.22,-107.81,-104.01
54.37,304.0,16332.0,-1928.0,0.05,177.36,-96.73,-92.55
54.44,380.0,16132.0,1832.0,0.61,177.56,-83.52,-81.23
54.5,456.0,15184.0,4688.0,0.92,177.68,-72.84,-70.14
54.56,580.0,13564.0,7876.0,0.67,177.19,-59.86,-58.88
54.63,340.0,12044.0,10232.0,0.21,176.65,-49.65,-47.76
54.69,504.0,8992.0,11864.0,0.09,176.36,-37.16,-36.33
54.76,392.0,6124.0,13812.0,0.37,176.57,-23.91,-24.87
54.82,548.0,2920.0,14872.0,0.42,176.7,-11.11,-13.26
54.89,336.0,-464.0,14920.0,0.47,176.93,1.78,-1.5
54.95,452.0,-3164.0,14652.0,0.56,177.31,12.19,9.61
55.01,612.0,-6800.0,13688.0,0.53,177.5,26.42,21.24
55.07,364.0,-9312.0,12456.0,0.56,177.97,36.78,32.94
55.14,600.0,-11216.0,10896.0,0.53,178.25,45.83,44.37
55.2,496.0,-13896.0,7760.0,0.05,177.89,60.82,56.33
55.26,568.0,-15200.0,5056.0,0.47,178.7,71.6,68.04
55.33,416.0,-16152.0,1812.0,0.23,178.75,83.6,79.79
55.39,468.0,-16472.0,-1412.0,0.15,178.99,94.9,91.5
55.45,424.0,-16028.0,-4592.0,0.66,179.8,105.99,103.36
55.52,336.0,-14964.0,-7708.0,0.25,179.61,117.25,115.5
55.59,456.0,-13344.0,-10700.0,0.0,179.5,128.72,127.56
55.65,388.0,-11392.0,-13196.0,0.41,180.01,139.2,139.65
55.72,812.0,-7964.0,-15408.0,-0.98,178.59,152.67,151.81
55.79,404.0,-4904.0,-16896.0,0.25,179.89,163.81,163.94
55.86,344.0,-2076.0,-17660.0,0.43,180.05,173.3,175.62
55.92,400.0,1316.0,-17640.0,0.41,179.84,-175.73,-172.78
55.99,568.0,4228.0,-17048.0,0.18,179.35,-166.07,-161.26
56.06,292.0,8320.0,-15528.0,-0.08,178.68,-151.82,-149.48
56.13,504.0,9804.0,-14216.0,1.47,180.02,-145.41,-138.04
56.19,340.0,13232.0,-10984.0,-0.02,177.89,-129.7,-126.43
56.26,148.0,15076.0,-7516.0,-0.05,177.58,-116.5,-114.33
56.33,544.0,16060.0,-4900.0,0.29,177.73,-106.97,-102.68
56.4,540.0,16128.0,-1400.0,0.92,177.99,-94.96,-91.13
56.47,472.0,16260.0,1720.0,-0.1,176.63,-83.96,-80.07
56.53,644.0,14908.0,5064.0,0.8,177.19,-71.24,-68.8
56.59,356.0,13468.0,7996.0,0.62,176.8,-59.3,-57.64
56.66,252.0,11176.0,10608.0,0.71,176.75,-46.49,-46.31
56.72,320.0,9480.0,12116.0,0.6,176.62,-38.04,-35.12
56.79,428.0,6052.0,14184.0,0.69,176.46,-23.11,-23.71
56.85,424.0,2416.0,14732.0,0.17,175.99,-9.31,-12.07
56.92,224.0,-1120.0,15244.0,0.7,176.76,4.2,-0.37
56.98,280.0,-3340.0,14832.0,-0.05,176.39,12.69,10.8
57.04,364.0,-6460.0,13864.0,0.58,177.19,24.98,22.48
57.11,508.0,-9432.0,11948.0,0.13,176.95,38.29,34.15
57.17,484.0,-12364.0,9828.0,-0.08,177.08,51.52,45.99
57.23,440.0,-14060.0,7508.0,0.34,177.98,61.9,57.89
57.3,356.0,-15592.0,4516.0,0.14,178.11,73.85,69.64
57.36,504.0,-16052.0,1340.0,-0.04,178.29,85.23,81.36
57.42,472.0,-16224.0,-1840.0,0.36,179.01,96.47,93.24
57.49,508.0,-16188.0,-4440.0,-1.82,177.1,105.34,104.7
57.56,488.0,-15148.0,-8252.0,0.23,179.21,118.58,116.98
57.62,512.0,-13348.0,-11212.0,-0.25,178.86,130.03,128.99
57.69,448.0,-10476.0,-13720.0,-0.15,179.05,142.64,141.41
57.76,516.0,-8400.0,-15324.0,0.57,179.88,151.27,153.48
57.83,592.0,-4344.0,-17132.0,0.45,179.57,165.77,165.45
57.89,332.0,-1308.0,-17716.0,0.18,179.32,175.78,177.2
57.96,392.0,2352.0,-17512.0,0.57,179.59,-172.35,-171.03
58.03,132.0,5812.0,-16804.0,0.24,179.15,-160.92,-159.15
58.09,480.0,8272.0,-15208.0,0.67,179.43,-151.46,-147.51
58.16,296.0,12008.0,-12748.0,-0.57,177.84,-136.71,-135.64
58.23,260.0,13832.0,-10392.0,0.17,178.49,-126.92,-123.62
58.3,200.0,15052.0,-7868.0,0.06,178.09,-117.6,-112.08
58.37,340.0,16096.0,-3812.0,0.26,177.81,-103.32,-100.43
58.44,96.0,16292.0,-472.0,0.18,177.47,-91.66,-88.81
58.5,648.0,15872.0,1884.0,2.29,179.34,-83.23,-78.11
58.56,380.0,14836.0,5348.0,0.76,177.36,-70.18,-67.08
58.63,56.0,13200.0,8324.0,0.73,177.06,-57.76,-55.93
58.69,396.0,10560.0,10880.0,0.4,176.58,-44.14,-44.71
58.76,424.0,8080.0,13096.0,1.11,177.34,-31.67,-32.97
58.82,200.0,5160.0,14276.0,0.28,176.62,-19.87,-21.43
58.88,448.0,1980.0,15008.0,0.38,176.85,-7.52,-9.8
58.95,284.0,-440.0,15052.0,0.13,176.8,1.67,1.23
59.01,396.0,-4504.0,14552.0,-0.38,176.32,17.2,12.36
59.07,476.0,-6568.0,13636.0,-0.21,176.91,25.72,23.93
59.13,444.0,-9784.0,11764.0,0.24,177.5,39.75,35.8
59.2,664.0,-12612.0,9136.0,0.64,178.24,54.08,47.8
59.26,456.0,-14060.0,7268.0,-0.27,177.85,62.66,59.42
59.33,280.0,-15416.0,4296.0,0.03,178.43,74.43,71.25
59.39,636.0,-16168.0,1196.0,0.0,178.66,85.77,82.88
59.45,532.0,-16504.0,-2164.0,0.21,179.12,97.47,94.54
59.52,104.0,-15436.0,-5620.0,-2.66,176.5,110.01,106.31
59.58,384.0,-14612.0,-8668.0,0.02,179.48,120.68,118.66
59.65,556.0,-12984.0,-11508.0,-0.08,179.56,131.55,130.69
59.72,316.0,-10896.0,-14056.0,0.35,180.06,142.22,142.95
59.79,484.0,-8104.0,-15400.0,0.13,179.77,152.25,154.79
59.85,448.0,-4660.0,-16984.0,0.26,179.69,164.66,166.5
59.92,600.0,-1900.0,-17756.0,0.6,179.87,173.89,177.97
59.99,552.0,2264.0,-17808.0,0.47,179.38,-172.75,-170.4
60.05,344.0,5704.0,-16764.0,0.15,178.87,-161.21,-158.63
60.12,732.0,9248.0,-14912.0,0.39,178.88,-148.19,-146.74
60.19,296.0,11856.0,-13004.0,-0.28,178.08,-137.64,-135.04
60.26,356.0,14260.0,-9700.0,-0.25,177.89,-124.22,-122.82
60.33,428.0,14628.0,-8056.0,1.78,179.79,-118.84,-111.41
60.39,296.0,16228.0,-3884.0,0.46,177.83,-103.46,-99.85
60.46,316.0,16480.0,-528.0,0.11,177.17,-91.84,-88.5
60.52,552.0,15604.0,3404.0,2.11,178.87,-77.69,-77.08
60.59,312.0,14700.0,5608.0,1.18,177.89,-69.12,-66.02
60.65,256.0,13088.0,8504.0,0.69,177.13,-56.99,-54.9
60.72,480.0,10752.0,11156.0,0.19,176.45,-43.94,-43.6
60.78,484.0,7356.0,13216.0,0.4,176.63,-29.1,-31.74
60.85,524.0,4632.0,14024.0,0.34,176.79,-18.28,-20.16
60.91,656.0,1996.0,14484.0,0.69,177.31,-7.85,-8.67
60.97,412.0,-1544.0,14792.0,0.76,177.45,5.96,2.73
61.03,640.0,-4536.0,14292.0,0.77,177.73,17.61,13.99
61.1,516.0,-7452.0,12880.0,0.0,177.27,30.05,25.7
61.16,420.0,-10508.0,11640.0,0.41,178.05,42.07,37.48
61.23,556.0,-12492.0,9768.0,0.95,178.97,51.98,49.3
61.29,576.0,-14304.0,6680.0,0.02,178.26,64.97,61.02
61.35,300.0,-15540.0,3892.0,-0.41,178.17,75.94,72.67
61.42,412.0,-16288.0,760.0,-0.09,178.76,87.33,84.49
61.48,648.0,-16496.0,-2424.0,-0.09,179.0,98.36,96.06
61.54,768.0,-15936.0,-6456.0,0.21,179.49,112.05,108.23
61.61,604.0,-14480.0,-8776.0,-0.27,179.34,121.22,120.26
61.68,356.0,-12852.0,-11804.0,0.35,180.04,132.57,132.42
61.75,516.0,-10072.0,-13944.0,-0.09,179.61,144.16,144.51
61.81,392.0,-7056.0,-16300.0,-0.24,179.44,156.59,156.79
61.88,496.0,-4020.0,-16764.0,-0.44,179.21,166.52,168.63
61.95,332.0,-780.0,-17884.0,0.29,179.76,177.5,180.41
62.02,308.0,2288.0,-17584.0,0.34,179.56,-172.59,-168.36
62.08,256.0,5764.0,-16252.0,0.46,179.31,-160.47,-156.71
62.15,432.0,8764.0,-15220.0,0.4,178.93,-150.07,-145.22
62.22,428.0,11460.0,-13084.0,0.92,179.03,-138.79,-133.75
62.29,536.0,13008.0,-10864.0,1.32,178.99,-129.87,-122.39
62.35,136.0,15868.0,-6072.0,1.02,178.04,-110.94,-110.26
62.42,200.0,15980.0,-3488.0,-0.21,176.76,-102.31,-98.76
62.49,496.0,16264.0,-404.0,0.91,177.56,-91.42,-87.29
62.55,588.0,15600.0,3372.0,0.09,176.38,-77.8,-76.17
62.62,228.0,14628.0,5928.0,0.85,177.01,-67.94,-65.13
62.68,384.0,12812.0,8972.0,0.78,176.69,-55.0,-53.91
62.75,540.0,10880.0,11184.0,0.51,176.33,-44.21,-42.76
62.81,424.0,8060.0,13008.0,0.59,176.28,-31.78,-31.3
62.88,244.0,4600.0,14368.0,0.16,175.81,-17.75,-19.77
62.94,256.0,1836.0,14716.0,0.5,176.32,-7.11,-8.3
63.0,424.0,-1824.0,15196.0,0.27,176.19,6.84,3.09
63.06,504.0,-4660.0,14516.0,0.35,176.59,17.8,14.27
63.13,368.0,-8064.0,13196.0,0.09,176.63,31.43,26.06
63.19,652.0,-10456.0,11352.0,0.43,177.42,42.65,37.84
63.25,576.0,-11652.0,8276.0,-0.12,177.27,54.62,49.8
63.32,544.0,-14736.0,5872.0,0.48,178.28,68.27,61.99
63.38,620.0,-15696.0,3180.0,-0.21,178.12,78.55,73.8
63.45,640.0,-16060.0,-272.0,0.44,179.16,90.97,85.91
63.51,700.0,-16492.0,-2800.0,-0.56,178.59,99.64,97.45
63.58,520.0,-15768.0,-5848.0,0.19,179.53,110.35,109.3
63.64,580.0,-14588.0,-9268.0,-0.18,179.25,122.43,121.34
63.71,680.0,-12640.0,-12240.0,0.57,180.09,134.08,133.55
63.78,704.0,-9932.0,-14700.0,0.43,179.99,145.96,145.73
63.84,516.0,-6708.0,-16316.0,0.76,180.34,157.65,157.7
63.91,328.0,-2856.0,-17532.0,0.2,179.78,170.75,169.77
63.98,316.0,32.0,-17508.0,0.71,180.37,-179.9,-178.42
64.04,80.0,2796.0,-17284.0,0.22,179.76,-170.81,-167.12
64.11,220.0,6304.0,-16536.0,0.4,179.63,-159.13,-155.62
64.18,464.0,8560.0,-14944.0,0.37,179.29,-150.2,-144.23
64.24,168.0,12416.0,-12204.0,0.6,179.01,-134.51,-132.41
64.31,764.0,13748.0,-9532.0,2.03,180.25,-124.74,-120.55
64.38,160.0,15916.0,-5720.0,-0.58,177.28,-109.77,-108.72
64.45,264.0,15980.0,-3460.0,-0.18,177.58,-102.22,-97.16
64.52,368.0,16328.0,192.0,1.17,178.5,-89.33,-85.58
64.58,384.0,15368.0,3392.0,0.05,177.05,-77.55,-74.74
64.64,252.0,14664.0,6448.0,1.36,178.12,-66.26,-63.62
64.71,592.0,12356.0,9088.0,0.69,177.22,-53.67,-52.38
64.77,452.0,10504.0,11084.0,1.21,177.63,-43.46,-41.24
64.84,396.0,7600.0,13252.0,0.69,176.92,-29.83,-29.69
64.9,28.0,4432.0,14228.0,0.22,176.44,-17.3,-18.25
64.96,416.0,1952.0,15176.0,0.56,176.86,-7.33,-7.11
65.03,176.0,-1760.0,15244.0,0.13,176.41,6.59,4.14
65.09,240.0,-4708.0,14488.0,-0.19,176.3,18.0,15.22
65.15,660.0,-8008.0,12876.0,0.25,176.97,31.88,27.14
65.21,360.0,-10264.0,11892.0,0.27,177.39,40.8,38.61
65.28,248.0,-13048.0,8964.0,-0.37,176.93,55.51,50.56
65.34,696.0,-14688.0,6088.0,0.26,177.98,67.49,62.57
65.41,684.0,-15896.0,3036.0,0.24,178.38,79.19,74.41
65.47,900.0,-16520.0,-276.0,0.6,179.14,90.96,86.28
65.53,360.0,-16524.0,-2852.0,-0.76,178.18,99.79,97.77
65.6,408.0,-15648.0,-5948.0,0.19,179.29,110.81,109.62
65.66,556.0,-14456.0,-9444.0,-0.21,179.0,123.16,121.69
65.73,824.0,-12376.0,-12224.0,0.28,179.61,134.65,133.9
65.8,340.0,-9704.0,-14588.0,0.19,179.58,146.37,146.06
65.87,336.0,-6460.0,-16288.0,0.47,179.89,158.37,158.05
65.93,260.0,-3104.0,-17572.0,-0.13,179.31,169.98,169.96
66.0,368.0,216.0,-17652.0,0.34,179.78,-179.3,-178.05
66.07,460.0,3576.0,-17444.0,0.37,179.7,-168.41,-166.37
66.13,260.0,6544.0,-16352.0,0.31,179.47,-158.19,-154.68
66.2,448.0,9576.0,-14672.0,0.94,179.8,-146.87,-143.01
66.27,488.0,12596.0,-11892.0,-0.1,178.42,-133.35,-131.23
66.34,308.0,15024.0,-8784.0,0.31,178.64,-120.31,-118.95
66.41,356.0,15088.0,-7280.0,-0.27,177.95,-115.76,-107.9
66.48,316.0,16276.0,-3028.0,0.5,178.03,-100.54,-96.23
66.54,408.0,16344.0,580.0,1.82,178.98,-87.97,-84.74
66.6,340.0,15344.0,3796.0,0.15,177.03,-76.1,-73.83
66.67,68.0,14204.0,6576.0,2.15,178.83,-65.16,-62.64
66.73,504.0,12524.0,8604.0,1.03,177.5,-55.51,-51.87
66.8,372.0,9820.0,11640.0,0.47,176.62,-40.15,-40.48
66.86,168.0,7148.0,13068.0,0.76,176.94,-28.68,-29.07
66.93,520.0,4028.0,14508.0,0.58,176.79,-15.52,-17.48
66.99,556.0,888.0,14944.0,-0.03,176.35,-3.4,-5.85
67.05,544.0,-1964.0,14896.0,0.11,176.7,7.51,5.36
67.11,620.0,-5204.0,14304.0,0.44,177.21,19.99,16.57
67.18,304.0,-7928.0,12860.0,0.44,177.49,31.65,28.19
67.24,448.0,-10164.0,11812.0,-0.25,177.1,40.71,39.52
67.3,536.0,-13336.0,8600.0,0.03,177.48,57.18,51.76
67.37,572.0,-14696.0,5940.0,0.32,178.23,67.99,63.54
67.43,516.0,-15944.0,3056.0,0.05,178.34,79.15,75.27
67.49,404.0,-16512.0,56.0,0.72,179.33,89.81,86.94
67.56,600.0,-16132.0,-2936.0,-0.69,178.16,100.31,98.07
67.62,472.0,-15316.0,-6148.0,-0.31,178.73,111.87,110.14
67.69,332.0,-14260.0,-9492.0,-0.72,178.47,123.65,122.34
67.76,432.0,-12164.0,-12328.0,0.34,179.63,135.38,134.56
67.82,624.0,-10032.0,-14428.0,0.41,179.78,145.19,146.54
67.89,408.0,-6720.0,-16408.0,0.42,179.67,157.73,158.57
67.96,456.0,-3520.0,-17636.0,0.8,179.98,168.71,170.33
68.02,324.0,496.0,-17640.0,-0.1,178.94,-178.39,-177.85
68.09,416.0,3004.0,-17480.0,0.18,179.18,-170.25,-166.24
68.16,388.0,7224.0,-16152.0,0.19,178.84,-155.9,-154.36
68.23,288.0,9836.0,-14460.0,0.5,179.01,-145.78,-142.66
68.29,448.0,12136.0,-12252.0,-0.15,178.1,-135.27,-131.14
68.36,580.0,14728.0,-8788.0,-0.02,177.86,-120.82,-118.98
68.43,284.0,15300.0,-6780.0,1.15,178.87,-113.9,-107.51
68.5,392.0,15924.0,-3564.0,1.07,178.23,-102.62,-96.26
68.57,460.0,16068.0,768.0,1.66,178.27,-87.26,-84.73
68.63,160.0,15380.0,3736.0,0.1,176.49,-76.35,-73.88
68.69,448.0,14072.0,6768.0,1.36,177.53,-64.31,-62.67
68.76,320.0,12428.0,9320.0,1.24,177.28,-53.13,-51.48
68.82,400.0,9280.0,11844.0,0.89,176.79,-38.08,-39.9
68.89,412.0,6648.0,13704.0,0.6,176.65,-25.88,-28.27
68.95,568.0,4212.0,14616.0,0.59,176.84,-16.08,-16.82
69.02,440.0,-52.0,15024.0,0.51,176.83,0.2,-4.86
69.08,368.0,-2212.0,14948.0,0.26,177.01,8.42,6.02
69.14,448.0,-5784.0,14032.0,0.26,177.21,22.4,17.41
69.2,700.0,-8148.0,12780.0,0.21,177.58,32.52,29.04
69.26,364.0,-10244.0,11484.0,-0.89,176.77,41.73,40.37
69.33,424.0,-13172.0,8332.0,0.11,177.89,57.68,52.59
69.39,556.0,-14660.0,6036.0,0.13,178.33,67.62,64.25
69.46,536.0,-15880.0,3024.0,-0.01,178.48,79.22,75.92
69.52,176.0,-16676.0,160.0,0.48,179.24,89.45,87.65
69.58,528.0,-15964.0,-3256.0,-0.88,178.04,101.53,99.0
69.65,464.0,-15476.0,-6992.0,-0.24,178.88,114.31,111.24
69.72,448.0,-13512.0,-9880.0,-1.07,178.32,126.17,123.58
69.78,416.0,-12176.0,-12188.0,0.5,180.1,135.03,135.66
69.85,452.0,-9304.0,-14676.0,0.34,179.89,147.63,147.78
69.92,720.0,-6384.0,-16004.0,0.21,179.75,158.25,159.57
69.98,424.0,-3524.0,-17264.0,0.59,180.01,168.46,171.2
70.05,480.0,-196.0,-17900.0,0.3,179.49,179.37,182.72
70.12,580.0,2696.0,-17644.0,0.32,179.22,-171.31,-166.18
70.18,240.0,6856.0,-16272.0,0.37,178.83,-157.15,-154.44
70.25,472.0,9772.0,-14316.0,0.39,178.62,-145.68,-142.74
70.32,124.0,12016.0,-12512.0,-0.47,177.5,-136.16,-131.34
70.39,220.0,14624.0,-8820.0,-0.2,177.36,-121.09,-119.22
70.46,348.0,15228.0,-6400.0,0.98,178.38,-112.8,-107.62
70.52,308.0,15976.0,-3204.0,1.05,177.99,-101.34,-96.24
70.59,548.0,16068.0,852.0,1.22,177.72,-86.96,-84.71
70.65,384.0,15480.0,3896.0,0.44,176.74,-75.87,-73.8
70.72,324.0,14228.0,6848.0,1.17,177.29,-64.3,-62.61
70.78,452.0,12460.0,9564.0,1.71,177.68,-52.49,-51.33
70.85,504.0,9452.0,12052.0,1.15,177.02,-38.11,-39.76
70.91,176.0,6464.0,13856.0,0.58,176.6,-25.01,-28.05
70.97,140.0,4104.0,14596.0,0.47,176.75,-15.7,-16.59
71.04,496.0,-188.0,15220.0,0.35,176.7,0.71,-4.61
71.1,444.0,-2648.0,14988.0,0.13,176.93,10.02,6.59
71.16,236.0,-5844.0,14252.0,0.34,177.44,22.3,18.1
71.23,544.0,-8256.0,12728.0,0.23,177.68,32.97,29.71
71.29,240.0,-10692.0,11448.0,-1.13,176.59,43.04,41.1
71.35,468.0,-13524.0,8416.0,0.54,178.43,58.11,53.32
71.42,364.0,-14788.0,5872.0,0.02,178.31,68.34,64.98
71.48,508.0,-16156.0,3124.0,-0.44,178.13,79.06,76.53
71.54,660.0,-16592.0,-128.0,-0.1,178.69,90.44,88.27
71.61,484.0,-16292.0,-3788.0,-0.56,178.41,103.09,100.08
71.68,528.0,-15592.0,-7324.0,0.18,179.41,115.16,112.5
71.74,472.0,-13820.0,-10124.0,-0.11,179.34,126.23,124.61
71.81,740.0,-11456.0,-13136.0,-0.42,179.17,138.91,137.11
71.88,532.0,-8656.0,-15304.0,0.27,180.01,150.51,149.57
71.95,364.0,-6108.0,-16436.0,-0.04,179.78,159.61,161.31
72.01,360.0,-2804.0,-17312.0,0.18,179.85,170.8,173.16
72.08,432.0,452.0,-17532.0,0.46,179.93,-178.52,-175.28
72.15,372.0,4928.0,-16916.0,0.21,179.4,-163.76,-163.41
72.21,96.0,7424.0,-15940.0,-0.06,179.1,-155.03,-151.72
72.28,388.0,10372.0,-14028.0,0.23,179.1,-143.52,-140.06
72.35,464.0,12524.0,-11592.0,0.92,179.5,-132.79,-128.3
72.42,220.0,14276.0,-9288.0,0.65,178.83,-123.05,-116.79
72.49,372.0,15824.0,-5508.0,0.31,177.94,-109.19,-105.26
72.55,284.0,16380.0,-1440.0,0.13,177.42,-95.02,-93.48
72.62,456.0,16188.0,1180.0,0.63,177.79,-85.83,-82.3
72.68,332.0,15284.0,4568.0,0.59,177.44,-73.36,-71.17
72.75,164.0,14040.0,7632.0,0.5,177.16,-61.47,-59.97
72.81,24.0,11636.0,10140.0,-0.06,176.47,-48.93,-48.66
72.88,392.0,9428.0,12088.0,0.32,176.83,-37.95,-37.2
72.94,236.0,6484.0,13508.0,0.02,176.47,-25.64,-25.84
73.01,452.0,3068.0,14528.0,0.74,177.2,-11.92,-14.19
73.07,292.0,816.0,15196.0,0.05,176.7,-3.07,-2.86
73.13,356.0,-2844.0,14836.0,0.52,177.16,10.85,8.25
73.19,400.0,-5728.0,14064.0,0.37,177.23,22.16,19.56
73.26,440.0,-9136.0,12196.0,0.19,177.27,36.84,31.4
73.32,356.0,-11532.0,10112.0,0.99,178.53,48.75,43.32
73.38,288.0,-13248.0,8308.0,-0.04,177.96,57.91,55.09
73.45,312.0,-15024.0,5092.0,0.14,178.37,71.28,67.05
73.51,540.0,-16140.0,2048.0,-0.37,178.21,82.77,78.78
73.58,520.0,-16428.0,-1232.0,-0.69,178.24,94.29,90.66
73.64,520.0,-16076.0,-4676.0,0.76,179.99,106.22,102.81
73.71,464.0,-15016.0,-7492.0,0.21,179.73,116.52,114.94
73.77,520.0,-13564.0,-10672.0,-0.33,179.32,128.2,127.0
73.84,320.0,-11720.0,-13332.0,0.61,180.36,138.68,139.29
73.91,472.0,-8096.0,-15312.0,-0.74,178.96,152.13,151.46
73.98,648.0,-5012.0,-16908.0,0.56,180.32,163.49,163.62
74.05,328.0,-2104.0,-17624.0,0.47,180.21,173.19,175.33
74.11,128.0,1808.0,-17428.0,0.39,179.95,-174.08,-172.86
74.18,584.0,4024.0,-17040.0,0.18,179.64,-166.71,-161.38
74.25,184.0,8492.0,-15784.0,0.27,179.27,-151.72,-149.54
74.31,376.0,9384.0,-14608.0,1.14,179.94,-147.28,-138.47
74.38,272.0,13344.0,-10980.0,-0.04,178.0,-129.45,-126.78
74.45,288.0,15156.0,-7528.0,0.57,178.38,-116.41,-114.58
74.52,224.0,15972.0,-4796.0,0.18,177.83,-106.71,-103.03
74.59,228.0,16028.0,-1604.0,0.4,177.73,-95.71,-91.55
74.65,364.0,15964.0,1660.0,-0.13,176.84,-84.06,-80.44
74.72,536.0,14960.0,5164.0,0.96,177.61,-70.96,-69.07
74.78,140.0,13616.0,7936.0,0.48,176.97,-59.76,-57.92
74.85,568.0,11264.0,10380.0,0.85,177.18,-47.34,-46.62
74.91,564.0,8960.0,12300.0,0.27,176.53,-36.07,-35.2
74.98,300.0,6048.0,13864.0,0.58,176.77,-23.57,-23.81
75.04,228.0,2748.0,14984.0,0.37,176.59,-10.39,-12.24
75.1,376.0,-972.0,15208.0,0.46,176.83,3.66,-0.4
75.16,168.0,-3116.0,14908.0,0.02,176.73,11.81,10.53
75.23,448.0,-6888.0,13840.0,0.81,177.63,26.46,22.25
75.29,476.0,-9384.0,12268.0,-0.14,177.04,37.41,33.86
75.36,720.0,-12320.0,9784.0,-0.15,177.33,51.54,45.91
75.42,688.0,-13956.0,7184.0,0.38,178.34,62.76,57.94
75.48,500.0,-15480.0,4708.0,0.07,178.43,73.08,69.62
75.55,668.0,-16028.0,1408.0,0.02,178.68,84.98,81.34
75.61,412.0,-16212.0,-1832.0,0.19,179.15,96.45,93.06
75.67,528.0,-16096.0,-3932.0,-1.53,177.72,103.73,104.4
75.74,548.0,-15116.0,-8404.0,0.01,179.2,119.07,116.77
75.81,508.0,-13348.0,-11140.0,-0.18,179.21,129.85,128.8
75.88,316.0,-10420.0,-14028.0,0.21,179.68,143.4,141.36
75.94,356.0,-8276.0,-15440.0,0.53,180.17,151.81,153.35
76.01,452.0,-4328.0,-17064.0,0.27,179.78,165.77,165.34
76.08,408.0,-992.0,-17480.0,0.15,179.7,176.75,177.23
76.14,656.0,2020.0,-17452.0,0.44,179.95,-173.4,-171.27
76.21,472.0,5700.0,-16772.0,0.48,179.81,-161.23,-159.36
76.28,416.0,8536.0,-15088.0,0.79,179.95,-150.5,-147.57
76.35,136.0,12052.0,-12668.0,0.05,178.96,-136.43,-135.59
76.41,568.0,13328.0,-10484.0,0.45,179.29,-128.19,-123.83
76.48,528.0,15076.0,-8236.0,-0.15,178.31,-118.65,-112.36
76.55,456.0,15924.0,-3916.0,0.38,178.29,-103.82,-100.54
76.62,116.0,16120.0,-520.0,-0.02,177.61,-91.85,-88.91
76.68,372.0,15688.0,2628.0,2.46,179.83,-80.49,-77.54
76.75,320.0,14672.0,5620.0,0.92,178.03,-69.04,-66.42
76.81,564.0,12844.0,8320.0,0.63,177.52,-57.07,-55.23
76.88,224.0,10772.0,10776.0,0.6,177.32,-44.99,-43.97
76.94,224.0,7216.0,13304.0,0.6,177.24,-28.48,-31.97
77.01,280.0,4776.0,14264.0,0.63,177.57,-18.51,-20.34
77.07,600.0,1916.0,14984.0,0.53,177.62,-7.29,-8.75
77.13,148.0,-824.0,14844.0,0.12,177.34,3.18,2.35
77.19,404.0,-4744.0,14620.0,0.02,177.31,17.98,13.5
77.26,640.0,-6632.0,13540.0,0.18,177.85,26.1,24.88
77.32,344.0,-10024.0,11792.0,0.38,178.15,40.37,36.58
77.38,644.0,-12412.0,9512.0,0.98,179.07,52.54,48.56
77.45,468.0,-14076.0,6944.0,-0.34,178.08,63.74,60.23
77.51,384.0,-15620.0,3944.0,-0.23,178.49,75.83,72.13
77.58,684.0,-16460.0,776.0,0.12,179.15,87.3,84.02
77.64,284.0,-16220.0,-2312.0,0.35,179.66,98.11,95.49
77.7,832.0,-15784.0,-6348.0,-1.78,177.75,111.91,107.43
77.77,528.0,-15044.0,-8668.0,0.19,180.1,119.95,119.63
77.84,416.0,-12712.0,-11696.0,-0.04,179.89,132.62,131.69
77.9,528.0,-10724.0,-14152.0,0.18,180.19,142.85,143.92
77.97,372.0,-7440.0,-15760.0,-0.55,179.37,154.73,155.89
78.04,308.0,-5472.0,-16840.0,0.42,180.24,162.0,167.4
78.11,288.0,-1344.0,-17840.0,0.41,179.77,175.69,178.95
78.17,496.0,2404.0,-17564.0,0.19,179.26,-172.21,-169.47
78.24,508.0,5780.0,-16720.0,0.34,179.18,-160.93,-157.75
78.31,480.0,8824.0,-15152.0,0.38,178.94,-149.78,-146.12
78.37,380.0,10812.0,-13276.0,0.24,178.49,-140.84,-134.8
78.44,292.0,13512.0,-11000.0,-0.16,177.56,-129.15,-123.34
78.51,288.0,15920.0,-6232.0,1.45,178.66,-111.38,-110.95
78.58,436.0,16532.0,-3328.0,-0.05,177.13,-101.38,-99.25
78.65,412.0,16152.0,-472.0,0.47,177.46,-91.67,-87.76
78.71,64.0,15920.0,3316.0,-0.09,176.56,-78.23,-76.62
78.78,-12.0,14536.0,5804.0,0.6,177.1,-68.23,-65.57
78.84,364.0,12760.0,8972.0,0.85,177.13,-54.89,-54.27
78.91,284.0,10540.0,11104.0,0.15,176.37,-43.51,-43.0
78.97,464.0,8148.0,12964.0,0.37,176.55,-32.15,-31.54
79.03,304.0,4772.0,14436.0,0.56,176.69,-18.29,-19.98
79.1,404.0,1684.0,14920.0,0.45,176.72,-6.44,-8.4
79.16,232.0,-1852.0,14876.0,0.44,176.88,7.1,3.06
79.22,636.0,-4532.0,14428.0,0.31,177.1,17.44,14.24
79.29,204.0,-7828.0,13372.0,-0.19,176.86,30.34,25.93
79.35,668.0,-10584.0,11292.0,0.42,177.84,43.15,37.97
79.41,520.0,-12688.0,9168.0,-0.3,177.56,54.15,49.88
79.48,336.0,-14620.0,6312.0,0.34,178.56,66.65,61.91
79.54,844.0,-15528.0,3144.0,-0.11,178.51,78.55,73.76
79.61,560.0,-16268.0,-92.0,0.5,179.53,90.32,85.82
79.67,532.0,-16540.0,-2820.0,-0.49,178.92,99.68,97.22
79.73,608.0,-15800.0,-6056.0,0.56,180.17,110.97,109.19
79.8,684.0,-14540.0,-9332.0,-0.41,179.35,122.69,121.28
79.87,608.0,-12420.0,-11952.0,0.49,180.37,133.9,133.49
79.93,632.0,-9844.0,-14472.0,0.48,180.4,145.78,145.68
80.0,472.0,-6692.0,-16496.0,0.26,180.18,157.92,157.68
80.07,408.0,-3168.0,-17500.0,-0.02,179.93,169.74,169.65
80.14,260.0,228.0,-17532.0,0.16,180.11,-179.25,-178.31
80.2,272.0,3348.0,-17540.0,0.27,180.14,-169.19,-166.65
80.27,256.0,6560.0,-16148.0,0.71,180.36,-157.89,-154.84
80.34,336.0,9392.0,-14756.0,0.71,180.1,-147.52,-143.21
80.4,364.0,12844.0,-12296.0,-0.56,178.46,-133.75,-131.44
80.47,404.0,14636.0,-9048.0,0.87,179.68,-121.72,-119.23
80.54,140.0,15148.0,-6784.0,-0.79,177.81,-114.13,-107.98
80.61,408.0,16016.0,-3004.0,0.31,178.37,-100.62,-96.29
80.68,568.0,16204.0,264.0,1.63,179.31,-89.07,-84.89
80.74,272.0,15532.0,3604.0,0.39,177.71,-76.94,-74.02
80.8,392.0,14360.0,6956.0,2.1,179.17,-64.15,-62.68
80.87,468.0,12676.0,9004.0,1.05,177.99,-54.61,-51.61
80.93,208.0,9880.0,11800.0,0.98,177.67,-39.94,-40.17
81.0,272.0,7056.0,13040.0,0.31,177.01,-28.42,-28.76
81.06,480.0,4160.0,14348.0,0.73,177.46,-16.17,-17.23
81.13,456.0,1084.0,15064.0,0.31,177.13,-4.12,-5.66
81.19,260.0,-2052.0,15160.0,0.02,176.98,7.71,5.57
81.25,452.0,-5388.0,14256.0,0.15,177.29,20.7,16.84
81.31,464.0,-8144.0,12880.0,0.82,178.28,32.31,28.55
81.38,476.0,-10224.0,11612.0,-0.34,177.44,41.36,39.93
81.44,240.0,-13320.0,8528.0,0.1,177.99,57.37,52.17
81.5,472.0,-14712.0,5940.0,0.1,178.43,68.01,63.93
81.57,576.0,-16004.0,2988.0,0.07,178.75,79.42,75.66
81.63,564.0,-16480.0,4.0,0.44,179.44,89.99,87.32
81.69,436.0,-16252.0,-2976.0,-0.69,178.53,100.38,98.26
81.76,496.0,-15068.0,-6108.0,-0.2,179.2,112.07,110.36
81.82,220.0,-14420.0,-9404.0,-0.62,178.92,123.11,122.5
81.89,384.0,-12376.0,-12104.0,0.06,179.65,134.36,134.6
81.96,684.0,-9908.0,-14640.0,0.2,179.77,145.91,146.65
82.03,656.0,-6672.0,-16320.0,0.95,180.45,157.76,158.55
82.09,328.0,-3348.0,-17844.0,0.3,179.74,169.37,170.37
82.16,392.0,-64.0,-17656.0,-0.02,179.33,179.79,182.02
82.22,404.0,3712.0,-17280.0,0.29,179.45,-167.88,-166.44
82.29,312.0,6776.0,-16376.0,0.5,179.54,-157.52,-154.66
82.36,296.0,9900.0,-14524.0,0.54,179.33,-145.72,-142.9
82.43,144.0,12708.0,-11852.0,0.25,178.8,-133.0,-131.06
82.5,272.0,14708.0,-8868.0,0.37,178.75,-121.09,-119.05
82.56,284.0,15096.0,-6904.0,-0.17,178.04,-114.58,-107.85
82.63,472.0,16068.0,-3108.0,0.36,177.98,-100.95,-96.23
82.7,292.0,16176.0,616.0,1.74,178.95,-87.82,-84.73
82.76,236.0,15256.0,3704.0,0.15,177.08,-76.35,-73.84
82.83,216.0,13864.0,6636.0,1.26,177.98,-64.42,-62.63
82.89,164.0,12708.0,9024.0,1.05,177.61,-54.62,-51.58
82.95,508.0,9744.0,11820.0,0.81,177.12,-39.5,-40.12
83.02,544.0,6572.0,13396.0,0.56,176.92,-26.13,-28.48
83.08,236.0,4132.0,14464.0,0.45,177.01,-15.94,-16.99
83.15,460.0,524.0,15312.0,0.37,177.02,-1.96,-5.22
83.21,240.0,-1988.0,15000.0,0.01,176.94,7.55,5.77
83.27,252.0,-5268.0,13884.0,-0.06,177.02,20.78,17.02
83.33,416.0,-8200.0,12868.0,0.52,177.91,32.51,28.87
83.4,288.0,-10524.0,11636.0,-0.63,177.07,42.13,40.28
83.46,272.0,-13292.0,8168.0,0.48,178.34,58.43,52.61
83.52,540.0,-14784.0,5816.0,0.21,178.55,68.53,64.38
83.59,448.0,-15696.0,3112.0,0.08,178.78,78.79,76.01
83.65,504.0,-16864.0,144.0,0.4,179.33,89.51,87.57
83.71,240.0,-16296.0,-3340.0,-0.74,178.35,101.58,98.95
83.78,380.0,-15376.0,-6700.0,-0.18,179.13,113.54,111.13
83.85,520.0,-13496.0,-9644.0,-0.8,178.72,125.55,123.44
83.91,228.0,-12340.0,-12104.0,0.21,179.91,134.45,135.46
83.98,612.0,-9432.0,-15064.0,0.21,179.82,147.95,147.64
84.05,508.0,-6636.0,-16076.0,0.53,180.17,157.57,159.39
84.12,316.0,-3652.0,-17508.0,0.71,180.19,168.22,171.02
84.18,372.0,-260.0,-17864.0,0.38,179.62,179.17,182.55
84.25,284.0,2736.0,-17480.0,0.73,179.67,-171.1,-166.28
84.31,368.0,7308.0,-16152.0,0.26,178.79,-155.66,-154.36
84.38,288.0,10068.0,-14388.0,0.26,178.68,-145.02,-142.6
84.45,124.0,11592.0,-12692.0,-0.28,177.93,-137.59,-131.17
84.52,208.0,14736.0,-8912.0,-0.53,177.13,-121.16,-119.09
84.59,616.0,15728.0,-5920.0,1.31,178.79,-110.63,-107.25
84.66,420.0,16416.0,-2728.0,1.69,178.87,-99.44,-95.64
84.72,12.0,16220.0,784.0,1.25,178.1,-87.23,-84.36
84.78,308.0,15456.0,4000.0,0.5,177.1,-75.49,-73.59
84.85,356.0,14368.0,7088.0,1.32,177.76,-63.74,-62.34
84.91,616.0,12344.0,9692.0,1.29,177.6,-51.86,-51.03
84.98,388.0,9432.0,11916.0,0.67,176.92,-38.36,-39.53
85.04,196.0,6584.0,13572.0,0.53,176.88,-25.88,-27.92
85.11,136.0,4136.0,14684.0,0.37,176.88,-15.73,-16.47
85.17,564.0,-240.0,15112.0,0.31,176.89,0.91,-4.46
85.23,608.0,-2448.0,14704.0,0.4,177.44,9.45,6.68
85.29,536.0,-5960.0,14128.0,0.66,177.93,22.87,18.1
85.36,480.0,-8044.0,13192.0,0.3,177.97,31.37,29.56
85.42,716.0,-10860.0,11380.0,-1.02,176.81,43.66,41.04
85.48,752.0,-13280.0,8508.0,0.78,178.82,57.35,53.2
85.55,412.0,-14752.0,5828.0,0.18,178.57,68.44,64.9
85.61,736.0,-16216.0,3076.0,-0.04,178.65,79.26,76.52
85.67,384.0,-16516.0,28.0,0.23,179.15,89.9,88.22
85.74,540.0,-16120.0,-3448.0,-0.85,178.21,102.07,99.41
85.8,688.0,-15380.0,-6880.0,-0.18,179.1,114.1,111.59
85.87,384.0,-13924.0,-10000.0,-0.92,178.58,125.69,123.86
85.94,608.0,-11916.0,-12440.0,-0.6,179.05,136.23,136.15
86.01,568.0,-9080.0,-14832.0,0.61,180.27,148.53,148.51
86.07,488.0,-6400.0,-16244.0,0.31,179.97,158.5,160.26
86.14,428.0,-3680.0,-17344.0,0.35,179.86,168.02,171.76
86.21,688.0,88.0,-17868.0,0.78,179.97,-179.72,-176.65
86.27,716.0,3284.0,-17200.0,0.29,179.21,-169.19,-165.4
86.34,292.0,6840.0,-16232.0,-0.07,178.53,-157.15,-153.76
86.41,536.0,10072.0,-14204.0,0.08,178.39,-144.66,-141.88
86.48,500.0,11972.0,-12396.0,0.69,178.75,-136.0,-130.31
86.54,484.0,14228.0,-9096.0,-0.6,176.97,-122.59,-118.66
86.61,352.0,15644.0,-5640.0,1.0,178.23,-109.83,-106.81
86.68,556.0,16240.0,-2056.0,1.79,178.76,-97.22,-95.02
86.75,496.0,15928.0,1068.0,1.16,177.93,-86.16,-83.7
86.81,268.0,15440.0,4064.0,0.36,176.92,-75.25,-72.64
86.87,316.0,14296.0,7252.0,0.93,177.26,-63.1,-61.45
86.94,588.0,11584.0,10116.0,0.97,177.16,-48.87,-49.94
87.0,528.0,9604.0,11976.0,0.18,176.46,-38.73,-38.45
87.07,408.0,6884.0,13500.0,0.3,176.55,-27.02,-27.1
87.13,448.0,3348.0,14628.0,0.21,176.48,-12.89,-15.45
87.2,428.0,396.0,14992.0,0.47,176.95,-1.51,-3.81
87.26,384.0,-2896.0,15064.0,0.47,177.14,10.88,7.4
87.32,340.0,-5544.0,14228.0,0.46,177.43,21.29,18.72
87.38,372.0,-8824.0,12960.0,-0.31,176.88,34.25,30.36
87.45,440.0,-11916.0,10156.0,0.07,177.58,49.56,42.59
87.51,440.0,-13232.0,8652.0,0.45,178.55,56.82,54.35
87.58,692.0,-15236.0,5396.0,0.23,178.54,70.5,66.15
87.64,460.0,-15892.0,2392.0,-0.51,178.17,81.44,77.83
87.7,332.0,-16464.0,-452.0,-0.79,178.19,91.57,89.53
87.77,364.0,-16532.0,-4416.0,0.15,179.31,104.96,101.45
87.83,352.0,-15384.0,-7324.0,0.4,179.85,115.46,113.62
87.9,380.0,-14136.0,-10428.0,-0.28,179.32,126.42,125.62
87.97,664.0,-11156.0,-13176.0,0.24,179.91,139.75,138.15
88.04,304.0,-10020.0,-14764.0,0.4,180.21,145.84,149.84
88.1,680.0,-5516.0,-16820.0,0.21,179.68,161.84,161.96
88.17,580.0,-2164.0,-17612.0,0.06,179.52,173.0,173.79
88.24,212.0,944.0,-17900.0,0.16,179.55,-176.98,-174.57
88.3,532.0,4784.0,-17236.0,0.35,179.53,-164.49,-162.85
88.37,256.0,6528.0,-16024.0,0.55,179.59,-157.83,-151.49
88.44,248.0,10508.0,-13552.0,-0.11,178.37,-142.21,-139.75
88.51,468.0,13340.0,-10812.0,0.7,178.98,-129.02,-127.47
88.58,292.0,14944.0,-8528.0,1.34,179.48,-119.71,-115.66
88.64,416.0,15672.0,-5096.0,0.58,178.37,-108.01,-104.1
88.71,104.0,16388.0,-2012.0,-0.22,177.22,-97.0,-92.67
88.78,440.0,16244.0,1916.0,0.34,177.41,-83.27,-81.16
88.84,216.0,15184.0,4828.0,0.65,177.53,-72.36,-70.03
88.91,488.0,13652.0,7764.0,0.61,177.29,-60.37,-58.83
88.97,544.0,11700.0,9812.0,0.33,176.88,-50.02,-47.74
89.04,324.0,9124.0,12084.0,0.28,176.64,-37.05,-36.46
89.1,276.0,5812.0,13864.0,0.48,176.78,-22.74,-24.86
89.16,544.0,3032.0,14880.0,0.15,176.64,-11.52,-13.3
89.23,340.0,-640.0,15088.0,0.22,176.86,2.43,-1.47
89.29,488.0,-3228.0,14708.0,0.62,177.58,12.38,9.68
89.35,468.0,-6664.0,13820.0,0.54,177.74,25.74,21.25
89.41,344.0,-9384.0,12448.0,0.29,177.86,37.01,32.96
89.48,536.0,-11292.0,10852.0,0.45,178.36,46.14,44.43
89.54,476.0,-13924.0,7664.0,0.11,178.16,61.17,56.44
89.61,312.0,-15312.0,4920.0,0.21,178.67,72.19,68.2
89.67,796.0,-16296.0,1728.0,-0.05,178.75,83.95,79.96
89.73,608.0,-16412.0,-1536.0,0.08,179.21,95.35,91.88
89.8,620.0,-15940.0,-4772.0,0.95,180.37,106.67,103.81
89.86,436.0,-14960.0,-8016.0,-0.07,179.59,118.18,116.0
89.93,728.0,-13216.0,-10824.0,0.33,180.17,129.32,128.28
90.0,336.0,-11448.0,-13444.0,0.34,180.28,139.58,140.36
90.07,412.0,-7396.0,-15976.0,-0.19,179.68,155.16,152.77
90.13,684.0,-5748.0,-16788.0,0.73,180.8,161.1,164.56
90.2,520.0,-2108.0,-17680.0,0.63,180.4,173.2,176.19
90.27,288.0,1444.0,-17712.0,0.47,179.98,-175.34,-172.23
90.33,584.0,4508.0,-16796.0,0.16,179.41,-164.98,-160.65
90.4,300.0,8264.0,-15544.0,0.18,179.06,-152.0,-148.93
90.47,372.0,11044.0,-13236.0,1.59,180.2,-140.16,-137.14
90.54,128.0,12860.0,-11492.0,0.14,178.48,-131.78,-125.64
90.61,328.0,15192.0,-7176.0,-0.8,177.01,-115.28,-113.7
90.68,460.0,16228.0,-4892.0,0.66,178.33,-106.78,-102.05
90.74,452.0,16156.0,-1088.0,0.69,177.96,-93.85,-90.46
90.81,92.0,16108.0,1784.0,-0.1,176.87,-83.68,-79.43
90.87,8.0,14952.0,5224.0,0.94,177.53,-70.74,-68.32
90.93,364.0,13476.0,8044.0,0.56,176.95,-59.17,-57.53
91.0,348.0,11268.0,10548.0,0.69,176.93,-46.89,-46.24
91.06,64.0,9556.0,11940.0,0.51,176.7,-38.67,-35.12
91.13,496.0,5984.0,14012.0,0.45,176.34,-23.13,-23.9
91.19,436.0,2612.0,14812.0,0.53,176.48,-10.0,-12.29
91.26,104.0,-572.0,15104.0,0.36,176.51,2.17,-0.62
91.32,116.0,-3184.0,14896.0,-0.1,176.28,12.07,10.34
91.38,612.0,-6904.0,13616.0,0.6,177.13,26.89,22.26
91.44,556.0,-9476.0,11804.0,-0.02,176.91,38.76,34.0
91.51,240.0,-12384.0,9272.0,-0.18,177.14,53.18,46.2
91.57,444.0,-13976.0,7532.0,0.1,178.01,61.68,58.06
91.64,544.0,-15484.0,4300.0,0.32,178.54,74.48,69.89
91.7,396.0,-16204.0,1312.0,-0.09,178.51,85.37,81.61
91.76,632.0,-16344.0,-1936.0,0.24,179.16,96.76,93.51
91.83,436.0,-15748.0,-5236.0,-2.4,176.8,108.39,105.24
91.9,500.0,-14900.0,-8564.0,0.0,179.46,119.89,117.62
91.96,540.0,-12900.0,-11460.0,-0.02,179.64,131.62,129.76
92.03,748.0,-9844.0,-14172.0,0.0,179.81,145.22,142.42
92.1,496.0,-8340.0,-15556.0,1.03,181.08,151.8,154.16
92.16,204.0,-4564.0,-17328.0,0.43,180.28,165.24,166.04
92.23,280.0,-1232.0,-17820.0,0.28,180.06,176.05,177.79
92.3,320.0,2452.0,-17316.0,-0.09,179.54,-171.94,-170.46
92.36,292.0,5784.0,-16712.0,0.03,179.53,-160.91,-158.45
92.43,436.0,9016.0,-15128.0,-0.15,179.14,-149.21,-146.66
92.5,432.0,11876.0,-13180.0,-0.39,178.68,-137.98,-134.8
92.57,532.0,14532.0,-9796.0,-0.17,178.62,-123.98,-122.54
92.64,520.0,14800.0,-7848.0,1.77,180.44,-117.94,-111.02
92.71,576.0,16176.0,-4048.0,-0.05,178.02,-104.05,-99.56
92.77,260.0,16232.0,-536.0,0.04,177.71,-91.89,-88.04
92.84,344.0,15608.0,3480.0,1.49,178.82,-77.43,-76.66
92.9,576.0,14760.0,5580.0,1.09,178.36,-69.29,-65.64
92.97,280.0,12724.0,8664.0,0.59,177.54,-55.75,-54.39
93.03,196.0,10772.0,11068.0,0.51,177.34,-44.22,-43.13
93.1,164.0,7800.0,13140.0,0.15,176.88,-30.69,-31.48
93.16,228.0,4996.0,14420.0,0.31,177.12,-19.11,-19.99
93.23,392.0,1900.0,14960.0,0.67,177.55,-7.24,-8.44
93.29,324.0,-1592.0,15192.0,0.21,177.2,5.98,2.92
93.35,368.0,-4428.0,14500.0,0.43,177.67,16.98,14.1
93.41,740.0,-8008.0,12948.0,0.32,177.81,31.74,26.01
93.47,184.0,-10420.0,11608.0,0.32,178.29,41.91,37.76
93.54,448.0,-12312.0,9932.0,0.81,179.13,51.11,49.47
93.6,400.0,-14504.0,6604.0,0.17,178.62,65.52,61.26
93.67,724.0,-15688.0,3800.0,0.33,179.14,76.38,72.98
93.73,456.0,-16240.0,740.0,-0.08,179.02,87.39,84.62
93.79,364.0,-16432.0,-2860.0,-0.05,179.28,99.87,96.35
93.86,404.0,-15956.0,-6252.0,0.54,180.17,111.4,108.46
93.92,420.0,-14488.0,-9148.0,-0.04,179.84,122.27,120.61
93.99,324.0,-12616.0,-11800.0,0.21,180.23,133.09,132.8
94.06,312.0,-10224.0,-14080.0,0.4,180.45,144.02,144.88
94.13,336.0,-7224.0,-15928.0,-0.19,179.78,155.6,156.87
94.19,672.0,-3848.0,-17024.0,0.05,179.91,167.26,168.82
94.26,500.0,16.0,-17620.0,0.23,179.95,-179.95,-179.3
94.33,212.0,2324.0,-17448.0,0.14,179.81,-172.41,-168.08
94.39,392.0,5852.0,-16676.0,0.6,179.9,-160.66,-156.44
94.46,432.0,8832.0,-15116.0,0.4,179.34,-149.7,-144.92
94.53,368.0,11328.0,-12968.0,0.95,179.47,-138.86,-133.46
94.6,500.0,12884.0,-11200.0,1.36,179.41,-131.0,-122.22
94.67,60.0,15700.0,-5936.0,0.85,178.13,-110.71,-110.09
94.73,476.0,16464.0,-3560.0,-0.05,177.19,-102.2,-98.74
94.8,516.0,15988.0,-272.0,0.4,177.33,-90.97,-87.23
94.86,48.0,15844.0,3336.0,-0.11,176.5,-78.11,-76.14
94.93,52.0,14504.0,6076.0,0.73,177.16,-67.27,-65.03
94.99,504.0,12744.0,8864.0,0.66,176.9,-55.18,-54.0
95.06,280.0,10720.0,11068.0,0.63,176.77,-44.08,-42.8
95.12,332.0,8284.0,13100.0,0.37,176.4,-32.31,-31.39
95.19,316.0,5028.0,14356.0,0.54,176.49,-19.3,-19.97
95.25,664.0,1532.0,14912.0,0.4,176.41,-5.87,-8.34
95.31,112.0,-2064.0,14972.0,0.27,176.49,7.85,3.17
95.37,216.0,-4208.0,14484.0,0.05,176.67,16.2,14.19
95.44,440.0,-7856.0,13328.0,0.21,177.0,30.52,25.91
95.5,312.0,-10420.0,11340.0,0.55,177.72,42.58,37.71
95.56,36.0,-12572.0,9636.0,-0.35,177.23,52.53,49.46
95.63,604.0,-14556.0,6604.0,-0.03,177.81,65.6,61.21
95.69,524.0,-15852.0,3492.0,0.08,178.29,77.58,73.18
95.75,564.0,-16388.0,76.0,0.04,178.62,89.73,85.02
95.82,748.0,-16504.0,-2676.0,0.11,179.09,99.21,96.29
95.88,864.0,-16104.0,-5968.0,0.72,179.94,110.33,108.11
95.95,748.0,-14216.0,-9256.0,0.22,179.63,123.07,120.36
96.01,332.0,-12772.0,-11876.0,0.11,179.75,132.92,132.37
96.08,380.0,-10240.0,-14136.0,0.1,179.78,144.08,144.46
96.15,428.0,-6784.0,-16316.0,0.21,179.86,157.42,156.69
96.21,408.0,-3816.0,-17224.0,0.13,179.84,167.51,168.52
96.28,156.0,-232.0,-17864.0,0.31,179.93,179.26,180.35
96.35,516.0,2836.0,-17484.0,0.53,180.07,-170.79,-168.19
96.41,344.0,5692.0,-16384.0,0.2,179.51,-160.84,-156.59
96.48,120.0,8944.0,-15072.0,0.46,179.4,-149.31,-145.0
96.55,404.0,11640.0,-12712.0,1.05,179.61,-137.52,-133.38
96.62,440.0,13080.0,-10664.0,1.73,179.94,-129.19,-121.92
96.69,348.0,15648.0,-5868.0,0.17,177.75,-110.56,-109.82
96.75,568.0,16068.0,-3236.0,0.03,177.55,-101.39,-98.22
96.82,212.0,16176.0,-292.0,0.66,177.9,-91.03,-86.92
96.88,400.0,15652.0,3240.0,0.01,176.89,-78.3,-75.85
96.95,112.0,14300.0,6216.0,0.79,177.45,-66.51,-64.67
97.01,344.0,12860.0,8832.0,0.59,177.1,-55.52,-53.53
97.08,508.0,10536.0,11152.0,0.73,177.07,-43.37,-42.29
97.14,392.0,8128.0,13144.0,0.52,176.77,-31.73,-30.85
97.21,272.0,4788.0,14304.0,0.53,176.71,-18.51,-19.39
97.27,232.0,1808.0,15008.0,0.3,176.54,-6.87,-7.92
97.33,400.0,-1992.0,15184.0,0.46,176.79,7.47,3.52
97.39,432.0,-4364.0,14608.0,0.29,176.96,16.63,14.56
97.46,332.0,-8188.0,12972.0,0.08,176.92,32.26,26.43
97.52,380.0,-10376.0,11284.0,0.64,177.98,42.6,38.19
97.58,204.0,-12596.0,9188.0,-0.22,177.49,53.89,50.05
97.65,476.0,-14736.0,6416.0,0.2,178.23,66.47,62.02
97.71,368.0,-15904.0,3244.0,-0.18,178.23,78.47,73.83
97.78,476.0,-16220.0,-268.0,0.47,179.27,90.95,85.94
97.84,660.0,-16412.0,-2736.0,-0.35,178.87,99.46,97.47
97.91,800.0,-15680.0,-6088.0,0.38,179.77,111.22,109.42
97.97,496.0,-14936.0,-9012.0,-0.14,179.4,121.11,121.32
98.04,600.0,-12216.0,-12148.0,0.33,179.85,134.84,133.6
98.11,768.0,-9712.0,-14572.0,0.31,179.94,146.32,145.81
98.17,604.0,-6640.0,-16424.0,0.56,180.23,157.99,157.81
98.24,332.0,-3096.0,-17428.0,0.06,179.75,169.93,169.77
98.31,428.0,64.0,-17792.0,0.26,179.96,-179.79,-178.44
98.37,72.0,2692.0,-17480.0,0.23,179.81,-171.24,-167.18
98.44,380.0,6276.0,-16600.0,0.87,180.1,-159.29,-155.66
98.51,444.0,9072.0,-14936.0,0.73,179.65,-148.73,-144.09
98.57,368.0,12032.0,-12620.0,0.78,179.3,-136.37,-132.46
98.64,236.0,13720.0,-9736.0,2.34,180.52,-125.36,-120.65
98.71,268.0,16204.0,-5824.0,-0.36,177.42,-109.77,-108.8
98.78,396.0,16208.0,-3724.0,0.34,178.03,-102.94,-97.28
98.84,528.0,16292.0,-36.0,0.76,177.96,-90.13,-85.97
98.91,268.0,15824.0,3128.0,0.27,177.1,-78.82,-75.23
98.97,684.0,14532.0,6184.0,1.29,177.82,-66.95,-64.14
99.04,392.0,12440.0,9180.0,0.73,177.01,-53.57,-52.85
99.1,76.0,10488.0,10856.0,0.63,176.86,-44.01,-41.76
99.16,320.0,8280.0,13228.0,0.51,176.54,-32.04,-30.59
99.23,468.0,4672.0,14564.0,0.5,176.41,-17.79,-19.1
99.29,308.0,1692.0,14808.0,0.37,176.39,-6.52,-7.64
99.35,464.0,-1664.0,15372.0,0.37,176.49,6.18,3.62
99.42,492.0,-4628.0,14660.0,0.08,176.41,17.52,14.71
99.48,368.0,-8176.0,13060.0,-0.05,176.51,32.05,26.52
99.54,512.0,-10296.0,11368.0,0.44,177.47,42.17,38.36
99.61,464.0,-12676.0,9284.0,-0.31,177.04,53.78,50.17
99.67,632.0,-14504.0,6148.0,0.12,177.78,67.03,62.16
99.74,468.0,-15812.0,3348.0,-0.02,178.05,78.04,73.9
99.8,716.0,-16348.0,-296.0,0.67,179.09,91.04,86.0
99.86,408.0,-16696.0,-2832.0,-0.82,178.03,99.63,97.49
99.93,456.0,-15516.0,-6112.0,0.11,179.13,111.5,109.43
99.99,420.0,-14436.0,-9444.0,-0.11,179.09,123.19,121.53
100.06,712.0,-12536.0,-12196.0,0.42,179.76,134.21,133.72
100.13,332.0,-9984.0,-14576.0,0.3,179.68,145.59,146.0
100.2,576.0,-6008.0,-14908.0,0.27,179.61,158.05,158.12
100.27,496.0,-2952.0,-17300.0,1.27,180.62,170.32,170.32
100.33,228.0,1016.0,-17868.0,0.07,179.41,-176.75,-177.48
100.4,436.0,2684.0,-17536.0,0.56,179.97,-171.3,-165.8
100.47,560.0,7128.0,-16036.0,0.23,179.16,-156.03,-153.79
100.54,264.0,9976.0,-14204.0,0.47,179.2,-144.92,-141.87
100.61,236.0,11712.0,-12632.0,0.51,178.98,-137.16,-130.42
100.68,352.0,14040.0,-9228.0,-0.89,176.99,-123.32,-118.66
100.75,224.0,15732.0,-5320.0,0.72,178.19,-108.68,-106.53
100.82,60.0,16396.0,-1440.0,1.2,178.48,-95.02,-94.37
100.88,260.0,16452.0,912.0,0.81,178.03,-86.83,-83.19
100.95,532.0,15420.0,4436.0,1.02,177.92,-73.95,-72.0
101.01,368.0,13924.0,7496.0,1.04,177.77,-61.7,-60.53
101.08,344.0,11700.0,10156.0,0.08,176.72,-49.04,-48.99
101.14,552.0,9616.0,11820.0,0.37,177.0,-39.13,-37.44
101.21,552.0,6624.0,13700.0,0.5,176.98,-25.8,-25.87
101.27,528.0,3240.0,14692.0,0.51,177.0,-12.44,-14.1
101.34,496.0,80.0,15184.0,0.15,176.77,-0.3,-2.31
101.4,584.0,-3384.0,14572.0,0.41,177.21,13.07,8.98
101.46,444.0,-6220.0,13604.0,0.02,177.17,24.57,20.64
101.53,436.0,-9576.0,12736.0,0.31,177.8,36.94,32.59
101.59,560.0,-11328.0,10592.0,0.55,178.4,46.92,44.36
101.66,444.0,-14156.0,7608.0,-0.04,178.03,61.74,56.61
101.72,608.0,-15316.0,4780.0,-0.08,178.42,72.67,68.73
101.79,476.0,-16160.0,1732.0,0.02,178.86,83.88,80.79
101.85,388.0,-16620.0,-1796.0,0.31,179.41,96.17,92.73
101.92,180.0,-16664.0,-3656.0,-0.82,178.57,102.37,104.18
101.99,396.0,-15020.0,-8276.0,-0.21,179.03,118.85,116.72
102.05,472.0,-13288.0,-11236.0,-0.02,179.41,130.22,129.15
102.12,660.0,-10256.0,-13904.0,-0.06,179.45,143.59,141.86
102.19,464.0,-8336.0,-15688.0,0.69,180.35,152.02,154.16
102.26,556.0,-4820.0,-16916.0,-0.27,179.2,164.1,166.03
102.33,136.0,-1912.0,-17676.0,0.11,179.42,173.83,177.84
102.4,548.0,2240.0,-17636.0,0.33,179.29,-172.76,-170.34
102.47,248.0,5864.0,-16764.0,0.4,179.15,-160.72,-158.35
102.54,444.0,9100.0,-15040.0,0.08,178.62,-148.82,-146.39
102.6,368.0,10612.0,-13252.0,1.06,179.39,-141.31,-134.88
102.67,440.0,13088.0,-11188.0,0.15,177.92,-130.52,-123.37
102.74,400.0,15900.0,-5948.0,1.66,178.8,-110.51,-110.87
102.81,84.0,16068.0,-3256.0,-0.1,177.07,-101.46,-99.03
102.88,568.0,16216.0,-364.0,0.53,177.48,-91.29,-87.52
102.94,404.0,15696.0,3416.0,0.21,176.83,-77.72,-76.17
103.01,516.0,14484.0,6264.0,1.21,177.7,-66.61,-64.78
103.08,364.0,12696.0,8952.0,0.82,177.15,-54.81,-53.38
103.14,328.0,10860.0,10828.0,0.71,176.92,-45.08,-42.17
103.21,344.0,8984.0,12268.0,0.95,176.9,-36.22,-31.05
103.27,384.0,7404.0,13168.0,1.25,176.76,-29.35,-20.57
103.34,252.0,6104.0,14056.0,1.35,176.1,-23.47,-10.62
103.4,248.0,4828.0,14284.0,1.22,174.87,-18.68,-1.29
103.47,480.0,3896.0,14560.0,1.67,173.83,-14.98,7.21
103.53,324.0,3100.0,14800.0,1.58,171.84,-11.83,14.88
103.6,420.0,2852.0,14744.0,1.89,169.86,-10.95,21.88
103.66,420.0,2856.0,14748.0,1.85,167.04,-10.96,27.98
103.72,504.0,2604.0,14692.0,1.97,163.84,-10.05,33.35
103.79,392.0,2736.0,14960.0,1.94,160.13,-10.36,37.91
103.85,380.0,2776.0,14768.0,1.75,155.84,-10.65,41.72
103.92,332.0,2684.0,15048.0,1.8,151.45,-10.11,44.93
103.98,396.0,2740.0,14860.0,1.92,146.89,-10.45,47.51
104.05,292.0,2772.0,14760.0,2.08,142.14,-10.64,49.53
104.11,260.0,2724.0,14892.0,1.95,136.91,-10.37,51.06
104.17,444.0,2724.0,14864.0,1.95,131.7,-10.38,52.14
104.24,324.0,2724.0,14856.0,2.17,126.62,-10.39,52.81
104.3,252.0,2820.0,15008.0,1.82,120.91,-10.64,53.05
104.37,420.0,2724.0,14680.0,1.76,115.45,-10.51,52.97
104.43,384.0,2756.0,15044.0,2.1,110.4,-10.38,52.63
104.5,280.0,2800.0,15028.0,1.87,104.83,-10.55,51.98
104.56,364.0,2804.0,14740.0,2.05,99.7,-10.77,51.08
104.62,332.0,2764.0,15008.0,1.81,94.21,-10.44,49.92
104.69,272.0,2744.0,14744.0,1.83,89.13,-10.54,48.59
104.75,300.0,2716.0,14660.0,2.1,84.39,-10.5,47.15
104.81,436.0,2820.0,14928.0,1.86,79.28,-10.7,45.56
104.88,336.0,2784.0,14892.0,1.83,74.51,-10.59,43.88
104.94,292.0,2740.0,14608.0,2.01,70.09,-10.62,42.13
105.0,396.0,2792.0,14804.0,1.71,65.35,-10.68,40.29
105.07,424.0,2668.0,14680.0,1.92,61.26,-10.3,38.46
105.13,352.0,2648.0,14928.0,2.11,57.34,-10.06,36.62
105.19,260.0,2780.0,14912.0,2.01,53.32,-10.56,34.7
105.26,440.0,2624.0,14828.0,1.87,49.37,-10.04,32.81
105.32,412.0,2740.0,14880.0,2.11,46.0,-10.43,30.89
105.38,440.0,2804.0,14960.0,1.83,42.25,-10.62,28.95
105.45,308.0,2728.0,14940.0,1.93,39.02,-10.35,27.05
105.51,368.0,2756.0,14920.0,1.98,35.93,-10.47,25.16
105.57,332.0,2756.0,14932.0,1.85,32.81,-10.46,23.29
105.64,276.0,2728.0,14824.0,1.85,29.97,-10.43,21.47
105.7,312.0,2808.0,14868.0,1.86,27.29,-10.7,19.65
105.76,404.0,2732.0,14828.0,1.42,24.3,-10.44,17.88
105.83,384.0,2800.0,14452.0,1.86,22.36,-10.96,16.14
105.89,336.0,2808.0,14896.0,1.96,20.18,-10.68,14.48
105.95,360.0,2812.0,14748.0,1.75,17.85,-10.8,12.85
106.01,388.0,2740.0,14940.0,2.0,16.12,-10.39,11.33
106.08,364.0,2720.0,14844.0,1.53,13.83,-10.38,9.85
106.14,448.0,2664.0,14628.0,1.98,12.58,-10.32,8.44
106.2,212.0,2772.0,14912.0,2.27,11.28,-10.53,7.1
106.26,332.0,2848.0,14760.0,1.79,9.33,-10.92,5.74
106.33,412.0,2804.0,14808.0,1.63,7.77,-10.72,4.46
106.39,460.0,2808.0,14876.0,1.96,6.84,-10.69,3.27
106.45,444.0,2668.0,14888.0,1.87,5.59,-10.16,2.19
106.51,436.0,2584.0,14728.0,2.01,4.7,-9.95,1.19
106.57,392.0,2676.0,14780.0,1.95,3.71,-10.26,0.22
106.63,308.0,2744.0,14880.0,1.84,2.74,-10.45,-0.73
106.69,364.0,2736.0,14744.0,1.8,1.9,-10.51,-1.63
106.75,364.0,2756.0,14924.0,1.92,1.28,-10.46,-2.46
106.82,340.0,2712.0,14732.0,1.98,0.68,-10.43,-3.24
106.88,368.0,2732.0,14904.0,2.04,0.14,-10.39,-3.97
106.94,368.0,2716.0,14800.0,2.29,-0.14,-10.4,-4.64
107.0,280.0,2664.0,14788.0,1.76,-1.14,-10.21,-5.28
107.07,452.0,2780.0,14792.0,1.9,-1.42,-10.64,-5.91
107.13,400.0,2712.0,14716.0,2.12,-1.59,-10.44,-6.47
107.19,408.0,2672.0,14892.0,2.08,-1.96,-10.17,-6.96
107.26,332.0,2720.0,14804.0,1.77,-2.54,-10.41,-7.47
107.32,464.0,2768.0,14828.0,1.86,-2.7,-10.57,-7.94
107.38,340.0,2740.0,14912.0,1.83,-2.95,-10.41,-8.36
107.45,412.0,2868.0,14784.0,1.84,-3.11,-10.98,-8.81
107.51,268.0,2656.0,14820.0,1.85,-3.28,-10.16,-9.14
107.57,352.0,2720.0,14708.0,1.74,-3.48,-10.48,-9.47
107.64,392.0,2676.0,14800.0,1.92,-3.39,-10.25,-9.75
107.7,320.0,2596.0,14820.0,1.91,-3.44,-9.94,-9.96
107.76,308.0,2824.0,14948.0,1.94,-3.4,-10.7,-10.23
107.82,484.0,2784.0,14776.0,1.77,-3.61,-10.67,-10.48
107.89,292.0,2696.0,14712.0,2.11,-3.28,-10.38,-10.66
107.95,344.0,2728.0,14948.0,1.79,-3.58,-10.34,-10.83
108.02,460.0,2708.0,14972.0,1.81,-3.52,-10.25,-10.97
108.08,332.0,2812.0,14836.0,1.94,-3.33,-10.73,-11.14
108.15,316.0,2772.0,14800.0,1.78,-3.46,-10.61,-11.28
108.21,308.0,2720.0,14736.0,2.02,-3.17,-10.46,-11.38
108.27,420.0,2712.0,15012.0,1.81,-3.29,-10.24,-11.45
108.34,372.0,2708.0,14768.0,1.79,-3.21,-10.39,-11.52
108.4,436.0,2724.0,14796.0,1.94,-2.97,-10.43,-11.58
108.47,428.0,2808.0,14892.0,2.0,-2.81,-10.68,-11.64
108.53,416.0,2772.0,14784.0,1.73,-2.99,-10.62,-11.71
108.6,420.0,2664.0,14740.0,2.18,-2.46,-10.24,-11.69
108.66,400.0,2800.0,14864.0,1.98,-2.53,-10.67,-11.73
108.72,400.0,2720.0,14868.0,1.75,-2.67,-10.37,-11.74
108.79,328.0,2644.0,14820.0,2.04,-2.27,-10.12,-11.7
108.85,368.0,2684.0,14968.0,1.89,-2.29,-10.17,-11.67
108.92,296.0,2696.0,14808.0,1.95,-2.09,-10.32,-11.65
108.98,376.0,2728.0,14720.0,1.9,-2.03,-10.5,-11.64
109.05,232.0,2980.0,14924.0,1.96,-1.87,-11.29,-11.71
109.11,344.0,2764.0,14808.0,1.73,-2.07,-10.57,-11.71
109.17,436.0,2660.0,14732.0,1.87,-1.83,-10.24,-11.66
109.24,328.0,2788.0,14860.0,1.74,-1.84,-10.63,-11.66
109.3,376.0,2800.0,14672.0,1.89,-1.61,-10.8,-11.66
109.37,452.0,2776.0,14896.0,2.08,-1.34,-10.56,-11.62
109.43,388.0,2764.0,14904.0,1.89,-1.45,-10.51,-11.59
109.5,520.0,2756.0,14916.0,1.85,-1.38,-10.47,-11.55
109.56,356.0,2660.0,14836.0,2.1,-1.05,-10.16,-11.46
109.62,316.0,2764.0,15088.0,1.77,-1.27,-10.38,-11.42
109.69,264.0,2744.0,14888.0,1.97,-0.98,-10.44,-11.37
109.75,380.0,2716.0,14872.0,1.82,-1.05,-10.35,-11.33
109.82,312.0,2808.0,14840.0,1.9,-0.89,-10.71,-11.31
109.88,312.0,2752.0,14860.0,1.96,-0.78,-10.49,-11.27
109.95,396.0,2728.0,14828.0,1.95,-0.72,-10.42,-11.22
110.01,388.0,2648.0,14880.0,1.9,-0.7,-10.09,-11.14
110.07,404.0,2728.0,14788.0,1.82,-0.69,-10.45,-11.11
110.14,392.0,2740.0,14676.0,2.05,-0.41,-10.58,-11.08
110.2,408.0,2808.0,14896.0,1.85,-0.56,-10.68,-11.07
110.27,400.0,2712.0,14792.0,2.31,-0.08,-10.39,-11.0
110.33,352.0,2748.0,14860.0,2.24,-0.1,-10.48,-10.95
110.39,432.0,2792.0,15076.0,2.02,-0.28,-10.49,-10.92
110.46,508.0,2736.0,14516.0,1.98,-0.28,-10.67,-10.91
110.52,336.0,2688.0,14972.0,1.79,-0.44,-10.18,-10.86
110.59,284.0,2684.0,14812.0,1.67,-0.51,-10.27,-10.82
110.65,284.0,2768.0,14700.0,1.8,-0.33,-10.66,-10.83
110.72,292.0,2776.0,14732.0,1.66,-0.45,-10.67,-10.84
110.78,408.0,2760.0,14884.0,1.98,-0.12,-10.51,-10.81
110.84,344.0,2688.0,14804.0,1.83,-0.25,-10.29,-10.77
110.91,384.0,2872.0,14828.0,1.92,-0.12,-10.96,-10.79
110.97,352.0,2816.0,14876.0,1.82,-0.23,-10.72,-10.8
111.04,348.0,2700.0,14784.0,1.84,-0.21,-10.35,-10.76
111.1,460.0,2628.0,14724.0,2.11,0.1,-10.12,-10.69
111.16,284.0,2824.0,14920.0,1.92,-0.04,-10.72,-10.7
111.23,236.0,2732.0,14796.0,1.79,-0.17,-10.46,-10.68
111.29,424.0,2692.0,14804.0,1.85,-0.09,-10.31,-10.65
111.36,352.0,2696.0,14708.0,2.0,0.08,-10.39,-10.61
111.42,388.0,2768.0,14776.0,2.0,0.1,-10.61,-10.61
111.48,400.0,2864.0,14716.0,2.0,0.1,-11.01,-10.64
111.55,252.0,2748.0,14796.0,1.85,-0.07,-10.52,-10.64
111.61,328.0,2748.0,14856.0,1.65,-0.27,-10.48,-10.63
111.68,388.0,2624.0,14588.0,2.05,0.14,-10.2,-10.58
111.74,400.0,2896.0,14916.0,1.73,-0.15,-10.99,-10.63
111.8,456.0,2828.0,14876.0,2.05,0.14,-10.76,-10.64
111.87,364.0,2796.0,14832.0,2.02,0.1,-10.68,-10.64
111.93,296.0,2880.0,14840.0,1.99,0.08,-10.98,-10.67
111.99,400.0,2804.0,14920.0,1.82,-0.12,-10.64,-10.67
112.06,324.0,2596.0,14764.0,1.88,-0.06,-9.97,-10.6
112.12,380.0,2776.0,14948.0,1.82,-0.06,-10.52,-10.6
112.18,348.0,2704.0,14912.0,1.63,-0.25,-10.28,-10.58
112.25,424.0,2744.0,14968.0,1.92,0.07,-10.39,-10.55
112.31,284.0,2720.0,14828.0,1.9,0.06,-10.39,-10.53
112.38,288.0,2776.0,14800.0,1.86,0.03,-10.62,-10.54
112.44,400.0,2632.0,14736.0,2.18,0.35,-10.13,-10.48
112.5,424.0,2648.0,14772.0,2.1,0.29,-10.16,-10.43
112.56,320.0,2728.0,14944.0,1.71,-0.08,-10.35,-10.42
112.63,364.0,2796.0,14876.0,1.78,-0.0,-10.64,-10.45
112.69,368.0,2704.0,14828.0,1.98,0.18,-10.33,-10.43
112.76,412.0,2736.0,14844.0,1.71,-0.08,-10.44,-10.43
112.82,452.0,2736.0,14916.0,2.08,0.3,-10.39,-10.41
112.88,424.0,2764.0,14764.0,1.85,0.07,-10.6,-10.43
112.95,400.0,2728.0,14972.0,1.69,-0.12,-10.33,-10.42
113.01,360.0,2748.0,14808.0,2.06,0.27,-10.51,-10.42
113.07,448.0,2636.0,14980.0,1.8,-0.0,-9.98,-10.37
113.14,292.0,2716.0,15048.0,1.97,0.2,-10.23,-10.35
113.2,292.0,2768.0,14936.0,1.86,0.1,-10.5,-10.36
113.26,400.0,2672.0,14876.0,2.07,0.3,-10.18,-10.32
113.33,340.0,2800.0,14912.0,1.93,0.17,-10.63,-10.34
113.39,316.0,2736.0,14820.0,2.05,0.27,-10.46,-10.34
113.45,460.0,2692.0,14756.0,2.05,0.25,-10.34,-10.33
113.52,448.0,2788.0,14936.0,2.04,0.24,-10.57,-10.34
113.58,392.0,2720.0,14692.0,1.84,0.02,-10.49,-10.35
113.64,296.0,2720.0,14924.0,2.0,0.17,-10.33,-10.34
113.71,284.0,2784.0,14980.0,1.84,0.01,-10.53,-10.36
113.77,432.0,2748.0,14864.0,1.91,0.07,-10.47,-10.37
113.83,328.0,2664.0,14696.0,2.06,0.21,-10.27,-10.35
113.9,304.0,2804.0,14820.0,1.86,0.02,-10.71,-10.38
113.96,412.0,2844.0,14864.0,1.8,-0.07,-10.83,-10.43
114.02,364.0,2740.0,14868.0,1.89,-0.01,-10.44,-10.44
114.09,440.0,2712.0,14960.0,1.82,-0.09,-10.28,-10.42
114.15,452.0,2796.0,14812.0,1.86,-0.03,-10.69,-10.45
114.22,420.0,2712.0,14856.0,1.7,-0.21,-10.35,-10.45
114.28,300.0,2684.0,14804.0,2.12,0.22,-10.28,-10.42
114.34,380.0,2712.0,14840.0,1.89,0.0,-10.36,-10.42
114.41,416.0,2804.0,14824.0,2.03,0.15,-10.71,-10.44
114.47,376.0,2712.0,14820.0,2.11,0.2,-10.37,-10.42
114.53,336.0,2812.0,14876.0,1.73,-0.18,-10.7,-10.46
114.6,376.0,2788.0,14696.0,1.92,-0.0,-10.74,-10.49
114.66,296.0,2612.0,14700.0,2.08,0.13,-10.08,-10.44
114.73,296.0,2656.0,14872.0,2.05,0.14,-10.13,-10.4
114.79,480.0,2716.0,14976.0,1.93,0.04,-10.28,-10.38
114.85,376.0,2784.0,14696.0,2.14,0.25,-10.73,-10.41
114.91,240.0,2816.0,14944.0,1.77,-0.14,-10.67,-10.44
114.98,440.0,2744.0,14868.0,1.93,0.0,-10.46,-10.44
115.04,404.0,2676.0,14840.0,1.95,0.02,-10.22,-10.42
115.11,320.0,2800.0,14684.0,1.76,-0.15,-10.8,-10.47
115.17,284.0,2728.0,14784.0,2.02,0.08,-10.45,-10.46
115.23,360.0,2660.0,14724.0,2.02,0.08,-10.24,-10.43
115.3,364.0,2836.0,14732.0,1.96,0.04,-10.9,-10.48
