Tiempo,AccX,AccY,AccZ,GiroY,KalmanGiroY,Pitch,KalmanPitch
87.0,288.0,9408.0,11944.0,1.63,-0.03,38.23,38.55
13.94,400.0,9580.0,11988.0,1.62,-0.07,38.63,38.55
14.0,232.0,9488.0,11932.0,1.55,-0.13,38.49,38.54
14.06,288.0,9576.0,12004.0,1.58,-0.1,38.58,38.54
14.12,348.0,9548.0,12004.0,1.67,-0.01,38.5,38.53
14.18,332.0,9468.0,11888.0,1.63,-0.05,38.53,38.53
14.24,328.0,9444.0,11952.0,1.6,-0.08,38.31,38.5
14.3,312.0,9524.0,11984.0,1.46,-0.24,38.48,38.49
14.37,248.0,9564.0,12004.0,1.72,0.02,38.55,38.49
14.43,492.0,9568.0,11980.0,1.54,-0.15,38.61,38.5
14.49,300.0,9596.0,12028.0,1.6,-0.08,38.58,38.5
14.55,416.0,9588.0,12028.0,1.7,0.02,38.56,38.51
14.61,340.0,9516.0,11980.0,1.73,0.05,38.46,38.51
14.67,468.0,9592.0,12020.0,1.69,0.01,38.59,38.52
14.73,252.0,9524.0,11900.0,1.5,-0.18,38.67,38.52
14.79,284.0,9532.0,11980.0,1.58,-0.08,38.51,38.52
14.85,284.0,9476.0,12072.0,1.65,-0.01,38.13,38.48
14.91,324.0,9520.0,11752.0,1.6,-0.09,39.01,38.53
14.97,340.0,9556.0,11736.0,1.53,-0.12,39.15,38.58
15.04,352.0,9452.0,11876.0,1.63,0.03,38.52,38.58
15.1,396.0,9468.0,11924.0,1.69,0.09,38.45,38.57
15.16,308.0,9568.0,11888.0,1.63,0.01,38.83,38.6
15.22,416.0,9504.0,11964.0,1.76,0.17,38.46,38.59
15.28,260.0,9492.0,12016.0,1.64,0.03,38.31,38.56
15.34,320.0,9456.0,11848.0,1.48,-0.15,38.59,38.56
15.4,400.0,9452.0,11816.0,1.72,0.09,38.66,38.57
15.46,280.0,9496.0,11804.0,1.64,0.02,38.82,38.6
15.52,364.0,9508.0,11956.0,1.6,-0.01,38.49,38.59
15.58,400.0,9372.0,11872.0,1.58,-0.03,38.29,38.56
15.64,272.0,9596.0,12196.0,1.54,-0.09,38.2,38.52
15.7,444.0,9560.0,11968.0,1.72,0.06,38.62,38.53
15.76,444.0,9456.0,11940.0,1.69,0.04,38.38,38.52
15.82,352.0,9480.0,11964.0,1.45,-0.21,38.39,38.49
15.89,316.0,9444.0,11864.0,1.53,-0.14,38.52,38.49
15.95,368.0,9612.0,11936.0,1.59,-0.08,38.84,38.52
16.01,336.0,9572.0,11984.0,1.6,-0.05,38.62,38.53
16.07,220.0,9572.0,12108.0,1.63,0.0,38.33,38.51
16.13,320.0,9612.0,11940.0,1.76,0.12,38.83,38.55
16.19,296.0,9488.0,11768.0,1.6,-0.03,38.88,38.58
16.25,372.0,9592.0,11852.0,1.57,-0.03,38.98,38.62
16.31,408.0,9444.0,11976.0,1.54,-0.03,38.26,38.58
16.37,176.0,9488.0,12028.0,1.68,0.08,38.27,38.55
16.43,328.0,9472.0,11828.0,1.57,-0.05,38.69,38.56
16.5,344.0,9544.0,11992.0,1.57,-0.04,38.52,38.56
16.56,256.0,9548.0,11776.0,1.47,-0.14,39.04,38.6
16.62,396.0,9492.0,11984.0,1.68,0.1,38.38,38.58
16.68,356.0,9508.0,11828.0,1.59,-0.01,38.79,38.6
16.74,340.0,9456.0,11864.0,1.49,-0.09,38.56,38.59
16.8,404.0,9392.0,12004.0,1.61,0.03,38.04,38.54
16.86,448.0,9492.0,12044.0,1.71,0.09,38.24,38.51
16.92,296.0,9588.0,11908.0,1.57,-0.07,38.84,38.54
16.98,376.0,9516.0,11876.0,1.59,-0.03,38.7,38.56
17.05,252.0,9528.0,11860.0,1.53,-0.07,38.78,38.58
17.11,348.0,9476.0,11868.0,1.53,-0.06,38.61,38.58
17.17,296.0,9508.0,11924.0,1.66,0.08,38.57,38.58
17.23,212.0,9576.0,11916.0,1.64,0.05,38.79,38.6
17.29,232.0,9528.0,11884.0,1.52,-0.05,38.72,38.61
17.35,260.0,9536.0,11704.0,1.58,0.02,39.17,38.67
17.41,272.0,9616.0,11876.0,1.77,0.25,39.0,38.72
17.47,356.0,9588.0,11960.0,1.63,0.13,38.72,38.72
17.53,308.0,9488.0,11804.0,1.5,0.0,38.79,38.73
17.59,336.0,9504.0,11932.0,1.7,0.21,38.54,38.72
17.65,340.0,9588.0,11784.0,1.57,0.06,39.13,38.77
17.71,252.0,9592.0,11956.0,1.6,0.12,38.74,38.77
17.77,220.0,9384.0,11828.0,1.54,0.06,38.43,38.74
17.83,284.0,9528.0,11832.0,1.6,0.09,38.84,38.75
17.89,372.0,9444.0,11864.0,1.48,-0.02,38.52,38.73
17.95,236.0,9500.0,11956.0,1.48,-0.04,38.47,38.7
18.02,304.0,9484.0,12008.0,1.58,0.04,38.3,38.66
18.08,360.0,9636.0,11896.0,1.61,0.04,39.01,38.7
18.14,332.0,9568.0,11984.0,1.5,-0.05,38.6,38.69
18.2,312.0,9500.0,11900.0,1.63,0.08,38.6,38.68
18.26,264.0,9424.0,11756.0,1.61,0.05,38.72,38.69
18.32,456.0,9400.0,11820.0,1.8,0.25,38.49,38.68
18.38,320.0,9508.0,11984.0,1.59,0.02,38.43,38.66
18.44,316.0,9580.0,12008.0,1.63,0.04,38.58,38.65
18.5,276.0,9568.0,11872.0,1.6,0.01,38.87,38.68
18.56,292.0,9508.0,11888.0,1.74,0.16,38.65,38.68
18.62,400.0,9448.0,11928.0,1.62,0.04,38.38,38.65
18.68,360.0,9128.0,11940.0,1.39,-0.21,37.4,38.51
18.74,424.0,9112.0,11168.0,1.24,-0.45,39.21,38.56
18.8,368.0,9500.0,12416.0,1.85,0.21,37.42,38.46
18.86,136.0,9640.0,12092.0,1.53,-0.19,38.56,38.46
18.92,320.0,9488.0,11900.0,1.63,-0.08,38.57,38.46
18.99,308.0,9480.0,11988.0,1.53,-0.18,38.34,38.44
19.05,268.0,9452.0,11828.0,1.66,-0.05,38.63,38.46
19.11,292.0,9564.0,11800.0,1.59,-0.12,39.03,38.51
19.17,296.0,9596.0,12044.0,1.59,-0.07,38.55,38.51
19.23,292.0,9588.0,12028.0,1.69,0.04,38.56,38.52
19.29,396.0,9612.0,12020.0,1.56,-0.1,38.65,38.52
19.35,252.0,9480.0,12056.0,1.59,-0.06,38.18,38.49
19.41,304.0,9328.0,11836.0,1.66,-0.01,38.24,38.46
19.48,328.0,9572.0,12020.0,1.66,-0.03,38.53,38.47
19.54,200.0,9668.0,12404.0,1.51,-0.17,37.93,38.4
19.6,384.0,9552.0,11936.0,1.66,-0.06,38.67,38.43
19.66,224.0,9668.0,11904.0,1.66,-0.04,39.08,38.49
19.72,284.0,9648.0,12092.0,1.59,-0.06,38.59,38.5
19.78,500.0,9224.0,11616.0,1.46,-0.19,38.45,38.48
19.84,292.0,9620.0,12308.0,1.71,0.06,38.01,38.44
19.9,260.0,9436.0,11884.0,1.67,-0.01,38.45,38.44
19.97,296.0,9524.0,11792.0,1.48,-0.2,38.93,38.48
20.03,308.0,9636.0,11940.0,1.67,0.03,38.9,38.52
20.09,332.0,9472.0,12012.0,1.59,-0.02,38.26,38.49
20.15,344.0,9444.0,11836.0,1.64,0.01,38.59,38.5
20.21,168.0,9524.0,11972.0,1.73,0.1,38.5,38.51
20.27,248.0,9568.0,11988.0,1.62,-0.01,38.59,38.52
20.33,416.0,9508.0,11936.0,1.66,0.05,38.54,38.52
20.39,364.0,9272.0,11860.0,1.56,-0.05,38.02,38.47
20.45,236.0,9524.0,11840.0,1.4,-0.26,38.81,38.49
20.51,276.0,9580.0,12048.0,1.69,0.06,38.49,38.49
20.57,316.0,9532.0,12000.0,1.71,0.08,38.46,38.49
20.63,232.0,9404.0,11692.0,1.41,-0.22,38.81,38.51
20.7,436.0,9496.0,12056.0,1.57,-0.03,38.23,38.48
20.76,240.0,9528.0,11672.0,1.69,0.06,39.23,38.56
20.82,308.0,9508.0,11860.0,1.66,0.09,38.72,38.58
20.88,464.0,9668.0,11896.0,1.66,0.1,39.1,38.64
20.94,424.0,9548.0,11844.0,1.48,-0.04,38.87,38.66
21.0,284.0,9628.0,11980.0,1.48,-0.03,38.79,38.67
21.06,340.0,9536.0,11932.0,1.62,0.12,38.63,38.68
21.12,304.0,9476.0,11932.0,1.62,0.12,38.46,38.66
21.18,348.0,9324.0,11944.0,1.68,0.16,37.98,38.6
21.24,252.0,9524.0,11964.0,1.6,0.03,38.52,38.59
21.3,224.0,9616.0,11864.0,1.63,0.06,39.03,38.64
21.36,264.0,9544.0,11888.0,1.71,0.17,38.76,38.66
21.42,276.0,9676.0,12064.0,1.56,0.03,38.73,38.67
21.48,372.0,9540.0,11864.0,1.59,0.06,38.8,38.69
21.54,388.0,9496.0,11864.0,1.6,0.08,38.67,38.69
21.6,360.0,9424.0,11860.0,1.54,0.02,38.47,38.67
21.66,340.0,9540.0,11820.0,1.67,0.13,38.91,38.7
21.72,280.0,9548.0,12008.0,1.63,0.11,38.49,38.68
21.78,372.0,9432.0,11848.0,1.46,-0.08,38.52,38.66
21.85,404.0,9508.0,11836.0,1.76,0.21,38.78,38.69
21.91,388.0,9428.0,11836.0,1.48,-0.06,38.54,38.67
21.97,404.0,9456.0,11820.0,1.54,-0.01,38.66,38.67
22.03,364.0,9588.0,11948.0,1.59,0.04,38.75,38.68
22.09,332.0,9608.0,12120.0,1.73,0.19,38.41,38.66
22.15,296.0,9476.0,12024.0,1.71,0.14,38.24,38.62
22.21,304.0,9472.0,11788.0,1.6,0.0,38.78,38.64
22.27,400.0,9540.0,12028.0,1.62,0.03,38.42,38.62
22.33,280.0,9492.0,11968.0,1.57,-0.03,38.42,38.6
22.39,296.0,9632.0,12100.0,1.69,0.08,38.52,38.59
22.45,364.0,9440.0,11832.0,1.47,-0.15,38.58,38.59
22.51,356.0,9524.0,11940.0,1.46,-0.17,38.58,38.58
22.57,316.0,9520.0,11936.0,1.6,-0.03,38.58,38.57
22.64,272.0,9708.0,11980.0,1.49,-0.14,39.02,38.61
22.7,400.0,9440.0,11660.0,1.71,0.12,38.99,38.66
22.76,256.0,9600.0,12100.0,1.44,-0.12,38.43,38.63
22.82,372.0,9432.0,11936.0,1.62,0.04,38.32,38.6
22.88,520.0,9056.0,10080.0,1.57,-0.03,41.94,38.94
22.94,144.0,9804.0,12368.0,1.6,0.24,38.4,38.89
23.0,520.0,9572.0,11660.0,1.52,0.12,39.38,38.95
23.06,308.0,9420.0,11896.0,1.74,0.38,38.37,38.91
23.12,392.0,9552.0,11876.0,1.52,0.11,38.81,38.91
23.18,260.0,9380.0,11788.0,1.64,0.23,38.51,38.88
23.24,92.0,9384.0,12152.0,1.66,0.22,37.68,38.77
23.3,260.0,9484.0,11920.0,1.6,0.07,38.51,38.75
23.36,436.0,9580.0,11844.0,1.63,0.08,38.97,38.77
23.42,300.0,9616.0,12008.0,1.68,0.14,38.69,38.77
23.48,276.0,9612.0,11940.0,1.44,-0.1,38.83,38.77
23.54,252.0,9520.0,11900.0,1.54,0.0,38.66,38.76
23.6,372.0,9492.0,11828.0,1.71,0.16,38.75,38.77
23.66,376.0,9488.0,12100.0,1.56,0.02,38.1,38.7
23.72,260.0,9436.0,11712.0,1.85,0.26,38.86,38.73
23.78,272.0,9968.0,11936.0,1.64,0.05,39.87,38.85
23.85,404.0,9408.0,11748.0,1.38,-0.12,38.69,38.83
23.91,280.0,9368.0,11960.0,1.73,0.21,38.07,38.76
23.97,168.0,9344.0,11952.0,1.63,0.06,38.02,38.69
24.03,368.0,9472.0,11944.0,1.67,0.04,38.42,38.66
24.09,340.0,9640.0,11936.0,1.77,0.12,38.93,38.7
24.15,304.0,9564.0,11964.0,1.69,0.06,38.64,38.7
24.21,284.0,9464.0,11900.0,1.61,-0.02,38.5,38.67
24.27,324.0,9532.0,11972.0,1.73,0.08,38.53,38.66
24.33,248.0,9696.0,11980.0,1.69,0.03,38.98,38.7
24.39,396.0,9472.0,11924.0,1.58,-0.06,38.46,38.67
24.45,356.0,9568.0,12076.0,1.59,-0.07,38.39,38.64
24.51,288.0,9600.0,11844.0,1.62,-0.06,39.03,38.67
24.57,344.0,9520.0,11824.0,1.47,-0.17,38.84,38.68
24.64,340.0,9576.0,11932.0,1.78,0.15,38.75,38.7
24.7,320.0,9524.0,11928.0,1.47,-0.16,38.61,38.68
24.76,352.0,9432.0,11916.0,1.67,0.04,38.36,38.65
24.82,332.0,9568.0,12052.0,1.71,0.05,38.45,38.63
24.88,388.0,9540.0,12000.0,1.45,-0.22,38.48,38.6
24.94,368.0,9416.0,11864.0,1.65,-0.03,38.44,38.59
25.0,144.0,9496.0,11920.0,1.65,-0.05,38.54,38.58
25.06,288.0,9580.0,12104.0,1.63,-0.07,38.36,38.55
25.12,388.0,9480.0,11940.0,1.6,-0.12,38.45,38.54
25.18,384.0,9724.0,11924.0,1.63,-0.09,39.2,38.6
25.25,260.0,9740.0,12044.0,1.63,-0.04,38.96,38.63
25.31,404.0,9592.0,11928.0,1.73,0.09,38.8,38.66
25.37,272.0,9596.0,11908.0,1.63,0.0,38.86,38.68
25.43,316.0,9508.0,11824.0,1.79,0.18,38.8,38.7
25.49,400.0,9412.0,11740.0,1.63,0.03,38.72,38.7
25.55,304.0,9576.0,11852.0,1.74,0.13,38.94,38.73
25.61,408.0,9580.0,11936.0,1.57,-0.02,38.75,38.73
25.67,324.0,9520.0,11708.0,1.73,0.14,39.12,38.78
25.73,236.0,9540.0,11932.0,1.82,0.26,38.64,38.78
25.79,260.0,9572.0,11936.0,1.53,-0.04,38.73,38.77
25.85,344.0,9452.0,11888.0,1.55,-0.03,38.49,38.74
25.91,244.0,9472.0,12008.0,1.69,0.09,38.27,38.7
25.97,268.0,9604.0,12048.0,1.63,-0.01,38.56,38.68
26.04,400.0,9564.0,11920.0,1.48,-0.16,38.74,38.68
26.1,180.0,9580.0,11960.0,1.67,0.03,38.69,38.68
26.16,336.0,9460.0,11896.0,1.55,-0.09,38.49,38.66
26.22,380.0,9508.0,11940.0,1.62,-0.03,38.53,38.65
26.28,248.0,9580.0,12116.0,1.66,0.0,38.33,38.61
26.34,408.0,9088.0,11216.0,1.53,-0.16,39.02,38.65
26.4,468.0,9576.0,12124.0,1.68,0.03,38.3,38.61
26.46,280.0,9444.0,11796.0,1.5,-0.17,38.68,38.61
26.52,276.0,9640.0,12220.0,1.68,0.01,38.27,38.58
26.58,404.0,9508.0,11728.0,1.67,-0.03,39.03,38.62
26.64,168.0,9632.0,11940.0,1.73,0.06,38.89,38.65
26.7,324.0,9404.0,11900.0,1.44,-0.21,38.32,38.61
26.77,436.0,9488.0,11804.0,1.71,0.04,38.79,38.63
26.83,224.0,9540.0,11884.0,1.56,-0.1,38.76,38.64
26.89,320.0,9508.0,11824.0,1.51,-0.13,38.8,38.65
26.95,404.0,9536.0,11948.0,1.64,0.01,38.59,38.64
27.01,240.0,9716.0,12032.0,1.6,-0.03,38.92,38.67
27.07,308.0,9504.0,11932.0,1.55,-0.06,38.54,38.65
27.13,432.0,9384.0,11972.0,1.7,0.08,38.09,38.6
27.19,288.0,9508.0,11972.0,1.66,-0.01,38.46,38.58
27.25,320.0,9468.0,12036.0,1.61,-0.07,38.19,38.54
27.32,332.0,9420.0,11972.0,1.56,-0.15,38.2,38.5
27.38,172.0,9612.0,12048.0,1.57,-0.16,38.58,38.5
27.44,352.0,9548.0,11948.0,1.5,-0.22,38.63,38.5
27.5,356.0,9452.0,11832.0,1.53,-0.18,38.62,38.5
27.56,328.0,9544.0,12096.0,1.61,-0.09,38.27,38.47
27.62,456.0,9548.0,11876.0,1.6,-0.12,38.8,38.5
27.68,320.0,9528.0,11928.0,1.58,-0.11,38.62,38.51
27.74,268.0,9640.0,11880.0,1.6,-0.09,39.06,38.56
27.81,244.0,9580.0,11896.0,1.59,-0.06,38.84,38.58
27.87,380.0,9524.0,11888.0,1.64,0.02,38.7,38.6
27.93,264.0,9540.0,12204.0,1.58,-0.03,38.02,38.54
27.99,248.0,9556.0,11940.0,1.7,0.05,38.67,38.55
28.05,304.0,9420.0,11876.0,1.57,-0.07,38.42,38.53
28.11,384.0,9512.0,11908.0,1.61,-0.04,38.62,38.54
28.17,284.0,9512.0,12132.0,1.65,0.0,38.1,38.5
28.23,364.0,9436.0,11776.0,1.62,-0.06,38.7,38.51
28.29,364.0,9536.0,11960.0,1.6,-0.06,38.57,38.52
28.36,308.0,9500.0,11888.0,1.72,0.06,38.63,38.53
28.42,396.0,7992.0,12952.0,-87.44,-89.1,31.68,33.01
28.48,448.0,7076.0,12564.0,-161.19,-162.95,29.39,23.2
28.55,284.0,4780.0,14436.0,-174.27,-175.52,18.32,12.19
28.61,444.0,1116.0,15156.0,-172.18,-172.92,4.21,1.02
28.68,344.0,-2740.0,14872.0,-168.01,-168.48,-10.44,-9.92
28.75,308.0,-5976.0,14064.0,-162.91,-163.42,-23.02,-21.36
28.82,496.0,-9436.0,12156.0,-174.27,-174.93,-37.82,-34.04
28.89,388.0,-10768.0,10816.0,-169.55,-170.53,-44.87,-45.84
28.96,360.0,-13268.0,8008.0,-186.57,-187.47,-58.89,-59.12
29.03,480.0,-15308.0,4640.0,-168.63,-169.5,-73.14,-71.2
29.1,376.0,-16288.0,824.0,-167.79,-168.83,-87.1,-83.46
29.17,820.0,-16136.0,-2652.0,-177.97,-179.33,-99.33,-96.18
29.24,656.0,-15544.0,-6704.0,-176.17,-177.81,-113.33,-109.3
29.31,416.0,-14064.0,-9488.0,-179.88,-181.87,-124.0,-122.76
29.38,688.0,-11528.0,-12700.0,-174.95,-177.06,-137.77,-135.94
29.46,600.0,-8544.0,-15468.0,-184.07,-186.34,-151.09,-149.92
29.53,588.0,-5360.0,-16968.0,-174.2,-176.57,-162.47,-162.79
29.6,380.0,-1920.0,-17784.0,-169.66,-172.0,-173.84,-175.2
29.68,600.0,1476.0,-17672.0,-176.47,-178.7,175.23,172.12
29.75,448.0,5484.0,-16640.0,-177.92,-179.87,161.76,159.78
29.82,376.0,8468.0,-15488.0,-183.4,-185.16,151.33,147.33
29.89,228.0,10116.0,-13624.0,-178.01,-179.41,143.41,135.75
29.96,468.0,13176.0,-10784.0,-175.58,-176.3,129.3,123.9
30.03,400.0,14884.0,-8180.0,-173.91,-174.15,118.79,112.34
30.1,360.0,16044.0,-3976.0,-168.45,-168.11,103.92,100.95
30.17,284.0,16312.0,-816.0,-170.29,-169.69,92.86,89.5
30.24,272.0,15976.0,2816.0,-182.54,-181.64,80.0,77.68
30.3,476.0,14880.0,5576.0,-178.09,-176.98,69.46,66.26
30.37,444.0,12616.0,8976.0,-183.28,-181.89,54.57,54.17
30.44,400.0,10724.0,11140.0,-173.63,-172.2,43.91,42.81
30.51,172.0,7284.0,13320.0,-173.82,-172.3,28.67,30.85
30.57,444.0,4404.0,14292.0,-184.06,-182.73,17.13,18.48
30.64,536.0,-396.0,14956.0,-182.47,-181.25,-1.52,5.52
30.7,404.0,-2852.0,14556.0,-168.88,-168.28,-11.09,-6.13
30.77,364.0,-5840.0,13972.0,-164.85,-164.68,-22.68,-18.03
30.84,444.0,-9432.0,12128.0,-172.85,-173.09,-37.87,-30.98
30.91,564.0,-10912.0,10820.0,-169.81,-170.64,-45.24,-43.16
30.98,604.0,-13524.0,7664.0,-186.85,-187.86,-60.46,-56.94
31.05,500.0,-15676.0,4304.0,-165.69,-167.01,-74.65,-69.28
31.12,340.0,-16272.0,736.0,-167.86,-169.66,-87.41,-81.83
31.19,492.0,-16684.0,-2548.0,-177.36,-179.65,-98.68,-94.7
31.26,460.0,-15652.0,-5876.0,-175.25,-177.89,-110.58,-107.68
31.34,376.0,-13648.0,-9852.0,-181.19,-184.09,-125.82,-121.67
31.41,484.0,-11216.0,-12740.0,-177.31,-180.57,-138.64,-135.29
31.48,588.0,-9752.0,-14892.0,-188.94,-192.5,-146.78,-149.27
31.56,296.0,-6232.0,-16872.0,-170.56,-173.9,-159.73,-161.73
31.63,444.0,-2044.0,-18020.0,-170.2,-173.36,-173.53,-174.32
31.7,428.0,2492.0,-17796.0,-175.69,-178.78,172.03,172.54
31.77,316.0,5680.0,-17048.0,-176.76,-179.9,161.57,160.12
31.84,432.0,8968.0,-15256.0,-183.31,-186.31,149.55,147.36
31.91,408.0,10260.0,-14024.0,-178.44,-181.24,143.81,135.7
31.99,432.0,13340.0,-10380.0,-178.11,-180.19,127.89,123.46
32.06,516.0,15088.0,-7636.0,-174.52,-176.2,116.84,111.61
32.13,444.0,15708.0,-3984.0,-167.86,-169.08,104.23,100.27
32.2,360.0,16032.0,-1072.0,-172.24,-173.1,93.83,88.79
32.26,388.0,15696.0,2968.0,-181.26,-181.67,79.29,76.79
32.33,216.0,14556.0,6188.0,-178.86,-179.05,66.97,65.07
32.4,24.0,13112.0,8604.0,-186.83,-186.85,56.73,53.06
32.46,224.0,10612.0,11144.0,-174.01,-173.71,43.6,41.87
32.53,564.0,7076.0,13448.0,-172.7,-172.25,27.75,29.92
32.6,232.0,4420.0,14404.0,-182.23,-181.96,17.06,17.69
32.67,304.0,-340.0,15116.0,-181.06,-180.85,-1.29,4.86
32.73,144.0,-2728.0,14584.0,-170.26,-170.58,-10.59,-6.8
32.8,564.0,-6416.0,13772.0,-164.44,-165.1,-24.98,-18.9
32.87,564.0,-8756.0,12428.0,-172.37,-173.55,-35.17,-31.49
32.94,300.0,-11732.0,10328.0,-169.81,-171.31,-48.64,-44.03
33.01,312.0,-14056.0,6772.0,-185.06,-186.97,-64.28,-58.08
33.08,460.0,-15316.0,3964.0,-174.17,-176.62,-75.49,-70.98
33.15,336.0,-16480.0,604.0,-165.61,-168.46,-87.9,-83.33
33.22,668.0,-16240.0,-2844.0,-176.58,-179.83,-99.93,-96.18
33.29,644.0,-15408.0,-6384.0,-173.91,-177.49,-112.51,-109.19
33.36,504.0,-13932.0,-10088.0,-179.34,-183.21,-125.91,-122.96
33.44,592.0,-11780.0,-12896.0,-174.0,-178.14,-137.59,-136.34
33.51,624.0,-10164.0,-14524.0,-184.36,-188.61,-145.02,-149.74
33.59,788.0,-4944.0,-16828.0,-175.29,-179.12,-163.63,-163.1
33.66,560.0,-1792.0,-17952.0,-182.89,-186.77,-174.3,-176.49
33.73,440.0,2772.0,-17720.0,-173.95,-177.62,171.11,170.58
33.8,392.0,5568.0,-16932.0,-174.18,-177.81,161.8,158.55
33.87,396.0,9252.0,-14940.0,-181.61,-184.94,148.23,145.9
33.94,248.0,12436.0,-12176.0,-175.27,-178.4,134.39,133.52
34.01,360.0,12532.0,-11744.0,-187.5,-190.54,133.14,121.47
34.09,136.0,15868.0,-6156.0,-174.99,-176.99,111.2,109.15
34.16,92.0,16352.0,-3172.0,-165.75,-167.56,100.98,97.82
34.22,376.0,16080.0,-344.0,-174.47,-176.0,91.23,86.48
34.29,368.0,15488.0,3420.0,-177.59,-178.7,77.55,74.89
34.36,168.0,14208.0,6560.0,-181.37,-182.24,65.22,63.0
34.42,512.0,13216.0,8432.0,-186.57,-187.25,57.46,51.27
34.49,308.0,10112.0,11516.0,-170.85,-170.98,41.29,40.02
34.56,536.0,6820.0,13552.0,-169.9,-169.93,26.71,28.3
34.63,444.0,3380.0,14728.0,-180.01,-180.17,12.93,15.9
34.69,300.0,496.0,15004.0,-178.68,-179.1,1.89,3.72
34.76,472.0,-3096.0,14788.0,-171.21,-171.79,-11.82,-7.69
34.82,592.0,-6308.0,13456.0,-164.98,-165.92,-25.12,-19.76
34.89,356.0,-8680.0,12416.0,-170.44,-171.84,-34.96,-32.12
34.96,448.0,-12284.0,10012.0,-168.65,-170.3,-50.82,-44.77
35.04,616.0,-14588.0,6484.0,-183.6,-185.78,-66.04,-58.85
35.11,900.0,-15632.0,3948.0,-174.51,-177.32,-75.83,-71.75
35.18,728.0,-16288.0,8.0,-167.91,-171.08,-89.97,-84.41
35.24,560.0,-16396.0,-2800.0,-176.6,-180.25,-99.69,-96.78
35.31,636.0,-15460.0,-6244.0,-173.4,-177.32,-111.99,-109.66
35.39,568.0,-13776.0,-10212.0,-179.18,-183.29,-126.55,-123.46
35.46,436.0,-11940.0,-12876.0,-174.18,-178.58,-137.16,-136.77
35.53,636.0,-10072.0,-14592.0,-185.12,-189.55,-145.38,-150.22
35.61,640.0,-5228.0,-16588.0,-174.92,-178.92,-162.51,-163.39
35.68,404.0,-1980.0,-17776.0,-184.06,-187.97,-173.64,-176.75
35.76,444.0,2824.0,-17480.0,-173.23,-176.86,170.82,170.37
35.83,416.0,5620.0,-16996.0,-174.45,-178.04,161.7,158.33
35.9,252.0,9508.0,-14860.0,-182.24,-185.52,147.39,145.58
35.97,524.0,11844.0,-12620.0,-175.5,-178.62,136.82,133.5
36.04,184.0,12896.0,-11720.0,-187.42,-190.25,132.26,121.36
36.11,-56.0,15744.0,-6188.0,-174.31,-176.15,111.46,109.13
36.18,260.0,16164.0,-3516.0,-165.15,-166.79,102.27,98.0
36.25,376.0,16028.0,-524.0,-178.17,-179.43,91.87,86.34
36.31,516.0,15516.0,3256.0,-179.44,-180.21,78.15,74.75
36.38,352.0,14112.0,6572.0,-181.97,-182.43,65.03,62.84
36.45,304.0,12980.0,8980.0,-186.18,-186.45,55.32,50.94
36.51,424.0,9960.0,11452.0,-171.49,-171.37,41.01,39.67
36.58,444.0,6920.0,13544.0,-170.18,-169.94,27.06,28.19
36.65,416.0,3352.0,14700.0,-180.44,-180.31,12.85,15.79
36.71,176.0,248.0,15312.0,-180.4,-180.52,0.93,3.43
36.78,588.0,-3080.0,14800.0,-173.21,-173.55,-11.76,-8.04
36.85,536.0,-6296.0,13728.0,-166.31,-166.97,-24.64,-20.09
36.92,292.0,-8780.0,12560.0,-172.46,-173.51,-34.96,-32.52
36.99,420.0,-11688.0,10540.0,-170.04,-171.3,-47.96,-44.87
37.06,616.0,-14668.0,6528.0,-183.44,-184.97,-66.01,-58.89
37.13,696.0,-15556.0,4024.0,-175.74,-177.9,-75.5,-71.78
37.2,544.0,-16100.0,-228.0,-171.21,-173.69,-90.81,-84.69
37.27,524.0,-16288.0,-3080.0,-174.6,-177.63,-100.71,-97.5
37.34,524.0,-15704.0,-7108.0,-173.18,-176.49,-114.35,-110.68
37.41,548.0,-14156.0,-10096.0,-177.4,-181.03,-125.5,-124.1
37.49,672.0,-11916.0,-12972.0,-172.44,-176.2,-137.43,-137.21
37.56,580.0,-8360.0,-15572.0,-183.2,-186.98,-151.77,-151.16
37.63,200.0,-5748.0,-16664.0,-174.78,-178.61,-160.97,-163.86
37.71,468.0,-3592.0,-17420.0,-184.92,-188.49,-168.35,-176.59
37.78,416.0,2068.0,-17656.0,-172.36,-175.19,173.32,170.9
37.85,524.0,5524.0,-16864.0,-172.44,-175.04,161.86,159.01
37.92,552.0,8704.0,-15168.0,-179.74,-182.09,150.15,146.71
37.99,496.0,12268.0,-12688.0,-174.23,-176.27,135.96,134.55
38.06,592.0,13548.0,-10608.0,-185.61,-187.52,128.06,121.99
38.13,396.0,15724.0,-6084.0,-175.66,-177.02,111.15,109.61
38.2,456.0,16272.0,-2756.0,-168.14,-169.37,99.61,97.96
38.27,392.0,16176.0,-740.0,-177.11,-178.2,92.62,86.63
38.34,332.0,15564.0,3544.0,-177.14,-177.69,77.17,75.04
38.4,324.0,13852.0,6792.0,-182.5,-182.86,63.88,62.95
38.47,836.0,11732.0,9172.0,-185.01,-185.29,51.98,50.74
38.54,272.0,9452.0,11676.0,-171.74,-171.91,38.99,39.23
38.61,388.0,6888.0,13372.0,-168.65,-168.84,27.25,27.88
38.67,372.0,3284.0,14612.0,-178.46,-178.7,12.67,15.59
38.74,484.0,1212.0,15236.0,-177.74,-178.24,4.55,3.79
38.8,424.0,-2688.0,14844.0,-180.23,-180.66,-10.26,-8.14
38.87,144.0,-6376.0,13832.0,-169.68,-170.3,-24.75,-20.39
38.94,356.0,-9048.0,12460.0,-169.59,-170.58,-35.99,-32.72
39.01,584.0,-13068.0,9368.0,-167.81,-169.09,-54.36,-45.62
39.08,748.0,-14532.0,6264.0,-181.78,-183.82,-66.68,-59.37
39.15,284.0,-15836.0,3940.0,-174.72,-177.4,-76.03,-72.24
39.22,564.0,-16384.0,-120.0,-177.73,-180.75,-90.42,-85.49
39.29,344.0,-16368.0,-3552.0,-174.02,-177.47,-102.24,-98.37
39.36,760.0,-15644.0,-7156.0,-172.11,-175.91,-114.58,-111.44
39.44,560.0,-14004.0,-10092.0,-175.94,-180.01,-125.78,-124.74
39.51,740.0,-11496.0,-13072.0,-170.92,-175.08,-138.67,-137.84
39.59,424.0,-6972.0,-15976.0,-182.71,-186.95,-156.42,-152.25
39.66,564.0,-5308.0,-16812.0,-174.8,-179.42,-162.48,-165.05
39.73,224.0,-3628.0,-17768.0,-183.16,-187.54,-168.46,-177.6
39.81,500.0,1532.0,-17564.0,-171.31,-174.87,175.02,170.23
39.88,592.0,5324.0,-16716.0,-172.43,-175.55,162.33,158.44
39.95,524.0,7684.0,-15368.0,-179.82,-182.59,153.43,146.54
40.02,640.0,12260.0,-12348.0,-173.73,-175.87,135.2,134.34
40.09,608.0,13788.0,-9720.0,-184.82,-186.89,125.18,121.52
40.16,296.0,15720.0,-6560.0,-178.79,-180.53,112.65,109.31
40.23,220.0,16336.0,-2868.0,-180.95,-182.4,99.96,96.93
40.29,472.0,16476.0,-56.0,-175.08,-176.25,90.19,85.56
40.36,564.0,15576.0,3652.0,-175.76,-176.52,76.8,74.3
40.43,424.0,14592.0,6768.0,-183.82,-184.36,65.12,62.34
40.49,364.0,11768.0,9616.0,-184.66,-184.95,50.75,50.07
40.56,216.0,9264.0,12012.0,-172.96,-173.2,37.64,38.41
40.63,440.0,6948.0,13592.0,-168.53,-168.84,27.08,27.13
40.69,88.0,3060.0,14752.0,-177.34,-177.65,11.72,14.89
40.76,260.0,1300.0,15152.0,-177.89,-178.48,4.9,3.35
40.82,588.0,-2836.0,15036.0,-182.08,-182.53,-10.68,-8.68
40.89,420.0,-6828.0,13468.0,-173.7,-174.33,-26.88,-21.35
40.96,352.0,-9200.0,12236.0,-169.73,-170.83,-36.94,-33.69
41.03,372.0,-12892.0,9048.0,-168.79,-170.17,-54.94,-46.61
41.1,488.0,-14560.0,6432.0,-181.63,-183.75,-66.17,-60.19
41.17,580.0,-15956.0,3604.0,-176.13,-178.77,-77.27,-73.19
41.24,536.0,-17008.0,536.0,-180.87,-183.86,-88.19,-86.29
41.31,352.0,-16308.0,-3420.0,-174.2,-177.36,-101.84,-98.86
41.38,828.0,-15688.0,-7296.0,-172.03,-175.45,-114.94,-111.89
41.46,404.0,-14084.0,-10256.0,-175.77,-179.47,-126.06,-125.13
41.53,296.0,-11324.0,-13012.0,-171.05,-174.83,-138.97,-138.21
41.61,760.0,-7060.0,-16036.0,-183.22,-187.07,-156.24,-152.56
41.68,424.0,-4632.0,-16944.0,-176.15,-180.33,-164.71,-165.64
41.75,516.0,-2296.0,-17448.0,-183.11,-187.2,-172.5,-178.56
41.83,252.0,1412.0,-17428.0,-171.92,-175.47,175.37,169.37
41.9,476.0,5808.0,-16724.0,-172.23,-175.23,160.85,157.53
41.97,424.0,7640.0,-15500.0,-179.12,-181.82,153.76,145.82
42.04,200.0,11416.0,-12788.0,-173.42,-175.41,138.24,134.07
42.11,312.0,14636.0,-9132.0,-183.55,-185.16,121.96,121.03
42.18,132.0,15008.0,-7416.0,-177.33,-178.86,116.3,109.39
42.25,24.0,16492.0,-3676.0,-187.98,-188.89,102.57,96.89
42.31,436.0,16364.0,440.0,-175.52,-175.92,88.46,85.35
42.38,380.0,15476.0,3748.0,-174.21,-174.33,76.39,74.18
42.45,472.0,14292.0,6408.0,-182.22,-182.15,65.85,62.44
42.51,368.0,11276.0,10228.0,-183.18,-182.81,47.79,49.97
42.58,444.0,9352.0,11732.0,-174.16,-173.98,38.56,38.21
42.65,524.0,6448.0,13640.0,-166.26,-166.05,25.3,26.92
42.72,308.0,3368.0,14712.0,-175.42,-175.35,12.89,14.97
42.78,316.0,88.0,14604.0,-175.11,-175.22,0.35,2.95
42.84,436.0,-2908.0,14876.0,-187.95,-188.29,-11.06,-9.05
42.91,320.0,-6380.0,13712.0,-176.23,-176.74,-24.95,-21.61
42.98,244.0,-9588.0,11780.0,-166.92,-167.73,-39.14,-33.97
43.05,360.0,-12712.0,9056.0,-168.95,-170.2,-54.53,-46.82
43.12,312.0,-14080.0,6796.0,-179.98,-181.91,-64.23,-60.05
43.19,804.0,-15516.0,3076.0,-180.59,-182.88,-78.79,-73.49
43.26,684.0,-16860.0,1020.0,-180.98,-183.73,-86.54,-86.36
43.33,756.0,-16288.0,-3832.0,-172.24,-175.01,-103.24,-99.11
43.41,540.0,-15568.0,-7008.0,-169.79,-172.93,-114.24,-111.87
43.48,408.0,-13532.0,-10500.0,-174.47,-177.81,-127.81,-125.2
43.55,460.0,-10784.0,-13516.0,-171.57,-175.15,-141.41,-138.56
43.63,368.0,-8104.0,-15872.0,-182.13,-185.96,-152.95,-152.44
43.7,472.0,-4540.0,-17496.0,-183.34,-187.21,-165.45,-166.06
43.77,464.0,-1664.0,-17592.0,-179.95,-183.78,-174.6,-178.95
43.85,644.0,3128.0,-17388.0,-174.95,-178.38,169.8,168.2
43.92,380.0,6384.0,-16388.0,-170.02,-173.3,158.72,156.37
43.99,140.0,9588.0,-14796.0,-176.93,-180.0,147.06,144.14
44.06,376.0,10972.0,-13252.0,-177.66,-180.47,140.38,132.51
44.13,392.0,15004.0,-8372.0,-182.49,-184.59,119.16,119.37
44.2,444.0,15084.0,-6548.0,-176.69,-178.81,113.47,107.59
44.27,516.0,15896.0,-3888.0,-188.18,-189.77,103.74,95.38
44.34,428.0,16364.0,1016.0,-171.94,-172.79,86.45,83.8
44.4,172.0,15384.0,4084.0,-170.46,-171.07,75.13,72.69
44.47,336.0,13608.0,7516.0,-178.49,-178.89,61.09,60.79
44.54,528.0,12176.0,10144.0,-179.76,-180.14,50.2,48.92
44.61,172.0,9444.0,12156.0,-181.95,-182.21,37.84,36.71
44.67,364.0,5724.0,13868.0,-169.37,-169.53,22.43,25.06
44.74,592.0,3044.0,14712.0,-171.16,-171.55,11.69,13.4
44.81,464.0,-1052.0,15488.0,-170.38,-170.92,-3.89,1.34
44.87,264.0,-4320.0,14576.0,-185.02,-186.02,-16.51,-11.65
44.94,380.0,-8240.0,12840.0,-173.37,-174.79,-32.69,-24.84
45.01,540.0,-10520.0,11280.0,-166.03,-168.13,-43.0,-37.3
45.08,456.0,-12260.0,10172.0,-174.14,-176.74,-50.32,-49.89
45.15,492.0,-15180.0,5612.0,-173.54,-176.18,-69.71,-63.21
45.22,544.0,-16396.0,2540.0,-179.87,-183.08,-81.19,-76.59
45.29,620.0,-16656.0,-1432.0,-176.05,-179.67,-94.91,-89.79
45.37,812.0,-15704.0,-5064.0,-185.71,-189.78,-107.87,-103.77
45.44,636.0,-14880.0,-8372.0,-167.27,-171.71,-119.36,-116.67
45.51,468.0,-13008.0,-11400.0,-168.57,-173.25,-131.23,-129.55
45.59,540.0,-11144.0,-13580.0,-176.55,-181.37,-140.63,-142.75
45.66,724.0,-6672.0,-16448.0,-175.66,-180.29,-157.92,-156.34
45.73,508.0,-2904.0,-17252.0,-180.4,-185.18,-170.45,-169.95
45.81,460.0,-300.0,-17912.0,-175.75,-180.57,-179.04,-182.69
45.88,484.0,3648.0,-17284.0,-189.28,-193.77,168.08,163.88
45.95,476.0,6760.0,-16420.0,-164.53,-168.64,157.62,152.71
46.02,600.0,9324.0,-14720.0,-170.66,-174.33,147.65,141.32
46.09,524.0,14072.0,-12572.0,-179.52,-182.62,131.78,128.9
46.16,360.0,15756.0,-9172.0,-172.92,-175.76,120.2,116.84
46.23,500.0,15508.0,-5812.0,-182.69,-185.22,110.54,104.63
46.3,188.0,16032.0,-1604.0,-179.3,-181.3,95.71,92.36
46.37,536.0,15740.0,1284.0,-185.79,-187.49,85.34,80.28
46.43,492.0,15176.0,5116.0,-164.97,-166.23,71.37,69.43
46.5,388.0,13580.0,7912.0,-170.37,-171.46,59.77,58.18
46.57,196.0,11164.0,10708.0,-172.49,-173.44,46.19,46.56
46.64,256.0,8256.0,13020.0,-185.11,-186.09,32.38,33.76
46.7,412.0,5308.0,14244.0,-174.72,-175.82,20.44,21.85
46.77,288.0,1884.0,14556.0,-168.2,-169.42,7.37,10.2
46.84,264.0,-1700.0,14800.0,-169.8,-171.27,-6.55,-1.65
46.9,628.0,-5280.0,14448.0,-176.65,-178.54,-20.07,-14.44
46.97,340.0,-7300.0,13464.0,-182.89,-185.27,-28.47,-27.51
47.04,392.0,-10608.0,11044.0,-183.44,-185.91,-43.85,-40.87
47.11,788.0,-13580.0,7656.0,-172.08,-174.81,-60.59,-54.09
47.18,504.0,-14792.0,5528.0,-167.47,-170.77,-69.51,-66.41
47.25,520.0,-15976.0,1840.0,-174.19,-177.76,-83.43,-79.35
47.32,460.0,-16076.0,-1868.0,-171.94,-175.87,-96.63,-92.2
47.39,424.0,-15608.0,-6100.0,-184.34,-188.66,-111.35,-106.23
47.47,520.0,-14944.0,-8828.0,-175.76,-180.53,-120.57,-119.56
47.54,496.0,-12852.0,-12084.0,-172.93,-177.8,-133.24,-132.64
47.62,432.0,-10120.0,-14684.0,-171.47,-176.39,-145.43,-145.7
47.69,640.0,-6872.0,-16344.0,-169.92,-174.82,-157.2,-158.51
47.76,356.0,-3232.0,-17480.0,-173.61,-178.39,-169.52,-171.32
47.84,492.0,1380.0,-17656.0,-176.98,-181.6,175.53,175.4
47.91,240.0,3872.0,-17260.0,-182.88,-187.48,167.36,162.86
47.98,564.0,8324.0,-15856.0,-184.76,-188.95,152.3,149.93
48.05,544.0,11176.0,-13500.0,-167.15,-171.13,140.38,138.23
48.12,140.0,13232.0,-11384.0,-172.82,-176.61,130.71,126.24
48.19,380.0,15072.0,-7844.0,-169.6,-172.98,117.49,114.35
48.26,308.0,15980.0,-4624.0,-174.59,-177.69,106.14,102.39
48.33,504.0,16472.0,-608.0,-172.57,-175.34,92.11,90.34
48.4,380.0,15976.0,2720.0,-187.5,-190.11,80.34,77.95
48.46,252.0,14400.0,5044.0,-177.33,-179.73,70.7,66.48
48.53,488.0,12360.0,8568.0,-168.24,-170.26,55.27,55.13
48.6,260.0,10624.0,10864.0,-167.18,-169.19,44.36,43.9
48.66,504.0,8004.0,12992.0,-178.96,-180.94,31.64,31.62
48.73,572.0,4584.0,14380.0,-180.11,-182.08,17.68,19.27
48.8,428.0,2656.0,15152.0,-188.96,-191.07,9.94,6.89
48.86,500.0,-1384.0,15312.0,-173.15,-175.0,-5.16,-4.49
48.93,336.0,-5288.0,14304.0,-169.44,-171.34,-20.29,-16.55
49.0,368.0,-8756.0,12552.0,-178.88,-181.11,-34.9,-29.84
49.07,412.0,-11400.0,10768.0,-176.06,-178.73,-46.63,-42.8
49.14,336.0,-13132.0,8076.0,-188.61,-191.62,-58.41,-56.62
49.21,444.0,-15500.0,4160.0,-169.15,-172.31,-74.98,-69.37
49.28,464.0,-16364.0,1092.0,-169.34,-172.99,-86.18,-81.99
49.35,508.0,-16424.0,-2628.0,-177.86,-181.89,-99.09,-95.19
49.42,520.0,-16024.0,-5680.0,-179.38,-183.75,-109.52,-108.37
49.49,552.0,-14400.0,-9452.0,-183.63,-188.1,-123.28,-122.26
49.57,276.0,-12636.0,-12044.0,-179.15,-183.71,-133.63,-135.47
49.64,680.0,-8612.0,-15416.0,-186.34,-190.74,-150.81,-149.76
49.72,572.0,-5652.0,-16944.0,-165.88,-170.37,-161.55,-162.15
49.79,456.0,-2216.0,-17776.0,-169.92,-174.35,-172.89,-174.68
49.86,472.0,1048.0,-17500.0,-177.58,-181.86,176.57,172.54
49.93,580.0,5332.0,-16840.0,-178.95,-182.87,162.43,160.04
50.0,612.0,8528.0,-15076.0,-184.83,-188.53,150.5,147.26
50.07,484.0,9704.0,-13868.0,-178.92,-182.32,145.02,135.69
50.14,332.0,12756.0,-10560.0,-174.79,-177.36,129.62,123.99
50.21,468.0,14860.0,-8216.0,-175.61,-177.67,118.94,112.22
50.28,380.0,15988.0,-4008.0,-168.92,-170.39,104.07,100.72
50.35,300.0,16164.0,-460.0,-169.18,-170.34,91.63,89.11
50.42,460.0,15524.0,2896.0,-182.02,-182.95,79.43,77.19
50.49,536.0,14356.0,6264.0,-177.77,-178.51,66.43,65.4
50.55,-44.0,12980.0,8344.0,-188.4,-189.04,57.27,53.28
50.62,336.0,10384.0,11456.0,-171.9,-172.2,42.19,41.83
50.69,364.0,6972.0,13632.0,-173.28,-173.55,27.09,29.73
50.75,272.0,4340.0,14452.0,-182.36,-182.86,16.72,17.43
50.82,412.0,-60.0,15220.0,-181.98,-182.54,-0.23,4.65
50.89,504.0,-3184.0,14780.0,-173.36,-174.34,-12.16,-7.2
50.95,532.0,-6204.0,13460.0,-165.37,-166.78,-24.75,-19.34
51.02,204.0,-8512.0,12252.0,-172.64,-174.52,-34.79,-31.9
51.09,284.0,-11840.0,9872.0,-170.74,-172.87,-50.18,-44.66
51.16,700.0,-14600.0,6636.0,-185.1,-187.72,-65.56,-58.64
51.23,884.0,-15460.0,3984.0,-176.04,-179.26,-75.55,-71.66
51.3,720.0,-16300.0,104.0,-168.38,-171.95,-89.63,-84.34
51.37,420.0,-16408.0,-2800.0,-176.59,-180.62,-99.68,-97.09
51.44,460.0,-15296.0,-6808.0,-175.22,-179.48,-113.99,-110.29
51.52,616.0,-13856.0,-9932.0,-178.52,-183.11,-125.63,-123.9
51.59,464.0,-12148.0,-12880.0,-173.71,-178.45,-136.68,-136.92
51.67,344.0,-9036.0,-14964.0,-184.71,-189.43,-148.87,-150.75
51.74,188.0,-5576.0,-16732.0,-176.4,-180.95,-161.57,-163.71
51.81,512.0,-2268.0,-17692.0,-185.49,-189.85,-172.69,-177.05
51.88,552.0,2468.0,-17820.0,-173.75,-177.71,172.11,170.2
51.95,376.0,5520.0,-16856.0,-175.15,-178.94,161.87,158.14
52.02,392.0,8672.0,-15456.0,-182.2,-185.65,150.7,145.77
52.09,320.0,12672.0,-12212.0,-174.51,-177.52,133.94,133.41
52.17,232.0,13392.0,-10872.0,-186.33,-189.29,129.07,120.99
52.24,284.0,15940.0,-6020.0,-178.96,-181.2,110.69,108.4
52.31,352.0,16348.0,-2748.0,-176.8,-178.83,99.54,96.29
52.38,508.0,16208.0,-348.0,-176.2,-177.94,91.23,85.01
52.44,80.0,15612.0,3840.0,-176.89,-178.07,76.18,73.47
52.51,308.0,14428.0,6704.0,-183.56,-184.51,65.08,61.77
52.57,512.0,11448.0,9988.0,-185.25,-185.91,48.9,49.3
52.64,424.0,9312.0,11732.0,-174.08,-174.78,38.44,37.73
52.71,360.0,6784.0,13708.0,-168.89,-169.52,26.33,26.4
52.77,268.0,3304.0,14860.0,-177.74,-178.38,12.54,14.28
52.84,480.0,940.0,14916.0,-178.09,-178.88,3.61,2.48
52.9,276.0,-2544.0,14940.0,-184.42,-185.11,-9.66,-9.32
52.97,904.0,-7100.0,13304.0,-178.21,-178.93,-28.09,-22.16
53.04,380.0,-9320.0,12292.0,-169.99,-171.23,-37.17,-34.46
53.11,412.0,-12948.0,9036.0,-169.46,-170.93,-55.09,-47.36
53.18,364.0,-14496.0,6564.0,-181.54,-183.69,-65.64,-60.8
53.25,364.0,-15676.0,3404.0,-178.33,-180.9,-77.75,-73.92
53.32,628.0,-16572.0,536.0,-181.82,-184.73,-88.15,-86.98
53.39,608.0,-16476.0,-3804.0,-174.15,-177.15,-103.0,-99.59
53.46,412.0,-15768.0,-7276.0,-171.53,-174.83,-114.77,-112.48
53.54,420.0,-13804.0,-10488.0,-174.37,-177.88,-127.23,-125.68
53.61,832.0,-10312.0,-13416.0,-172.33,-175.98,-142.45,-139.16
53.69,544.0,-7272.0,-16248.0,-181.22,-185.16,-155.89,-153.25
53.76,388.0,-4744.0,-17408.0,-181.09,-185.27,-164.76,-166.57
53.83,500.0,-1808.0,-17804.0,-181.29,-185.31,-174.2,-179.46
53.9,556.0,2768.0,-17436.0,-173.67,-177.21,170.98,167.97
53.97,464.0,6140.0,-16556.0,-171.46,-174.73,159.65,156.18
54.04,644.0,8220.0,-15160.0,-178.21,-181.16,151.53,144.41
54.11,536.0,11268.0,-13092.0,-178.0,-180.31,139.28,132.64
54.19,188.0,15076.0,-8284.0,-183.56,-185.28,118.79,119.39
54.26,456.0,15372.0,-6484.0,-177.52,-179.29,112.87,107.52
54.33,484.0,16456.0,-3344.0,-188.39,-189.68,101.49,95.06
54.4,584.0,15872.0,960.0,-173.11,-173.82,86.54,83.47
54.46,188.0,15236.0,4164.0,-172.69,-173.13,74.71,72.4
54.53,320.0,13948.0,7288.0,-179.13,-179.37,62.41,60.64
54.59,416.0,12020.0,9920.0,-180.96,-181.04,50.47,48.77
54.66,460.0,9148.0,12244.0,-181.19,-181.12,36.76,36.69
54.73,260.0,6196.0,13904.0,-168.5,-168.43,24.02,25.28
54.79,448.0,2888.0,14412.0,-172.27,-172.3,11.33,13.51
54.86,512.0,-1196.0,15420.0,-171.21,-171.44,-4.44,1.36
54.93,496.0,-4424.0,14316.0,-186.8,-187.53,-17.17,-11.8
55.0,572.0,-7792.0,12992.0,-174.97,-176.16,-30.95,-24.87
55.07,684.0,-10744.0,10984.0,-170.09,-171.82,-44.37,-37.7
55.14,564.0,-12264.0,10128.0,-175.04,-177.35,-50.45,-50.3
55.21,360.0,-15220.0,5708.0,-174.6,-176.92,-69.44,-63.59
55.28,500.0,-16308.0,2684.0,-180.13,-182.97,-80.65,-76.86
55.35,432.0,-16740.0,-1188.0,-177.6,-180.77,-94.06,-90.0
55.42,580.0,-16268.0,-4536.0,-188.93,-192.46,-105.58,-103.87
55.49,780.0,-15056.0,-8208.0,-164.51,-168.19,-118.6,-116.45
55.57,504.0,-12884.0,-11296.0,-168.9,-172.77,-131.24,-129.33
55.64,608.0,-11144.0,-13864.0,-177.33,-181.37,-141.21,-142.62
55.72,484.0,-6656.0,-16460.0,-176.24,-180.16,-157.98,-156.22
55.79,232.0,-3196.0,-17456.0,-179.79,-183.86,-169.62,-169.67
55.86,504.0,-896.0,-17688.0,-174.94,-179.01,-177.1,-182.12
55.93,200.0,3768.0,-17144.0,-188.54,-192.16,167.6,164.44
56.0,232.0,7704.0,-15824.0,-166.09,-169.42,154.04,152.74
56.07,320.0,9196.0,-14576.0,-170.1,-173.31,147.75,141.42
56.14,224.0,12708.0,-11596.0,-178.89,-181.53,132.38,129.13
56.22,232.0,14756.0,-8312.0,-173.53,-175.89,119.39,116.94
56.29,228.0,15944.0,-5340.0,-180.97,-183.1,108.52,104.62
56.36,204.0,16228.0,-2160.0,-179.44,-181.23,97.58,92.57
56.42,324.0,15544.0,1488.0,-190.46,-191.8,84.53,80.12
56.49,-20.0,14984.0,5044.0,-167.26,-168.2,71.4,69.17
56.56,236.0,13356.0,8064.0,-169.75,-170.5,58.88,57.92
56.62,564.0,10948.0,10868.0,-171.49,-172.15,45.21,46.29
56.69,204.0,7836.0,13252.0,-184.71,-185.47,30.6,33.36
56.76,380.0,4536.0,14128.0,-177.71,-178.71,17.8,21.03
56.83,596.0,1800.0,14896.0,-172.15,-173.44,6.89,9.17
56.89,684.0,-2224.0,14804.0,-169.32,-170.8,-8.54,-2.58
56.96,424.0,-5048.0,14116.0,-175.79,-177.79,-19.68,-15.18
57.03,488.0,-7344.0,13216.0,-185.39,-187.78,-29.06,-28.39
57.1,448.0,-11708.0,10148.0,-181.74,-184.19,-49.08,-42.12
57.17,560.0,-13432.0,8064.0,-173.95,-177.0,-59.02,-55.16
57.24,460.0,-15156.0,5264.0,-166.6,-170.0,-70.85,-67.47
57.31,600.0,-16056.0,1608.0,-173.08,-176.77,-84.28,-80.32
57.38,540.0,-16716.0,-2136.0,-172.95,-176.99,-97.28,-93.19
57.45,972.0,-16060.0,-6872.0,-183.85,-188.25,-113.17,-107.29
57.52,648.0,-14216.0,-9232.0,-184.1,-189.02,-123.0,-121.33
57.6,616.0,-12044.0,-12192.0,-176.88,-181.95,-135.35,-134.71
57.67,604.0,-9956.0,-14828.0,-171.36,-176.49,-146.12,-147.62
57.74,668.0,-6424.0,-16588.0,-169.62,-174.61,-158.83,-160.22
57.82,492.0,-2544.0,-17328.0,-173.34,-178.2,-171.65,-173.07
57.89,724.0,1304.0,-17840.0,-177.37,-182.11,175.82,173.86
57.96,600.0,4260.0,-17252.0,-182.91,-187.47,166.13,161.34
58.03,404.0,6768.0,-16368.0,-188.45,-192.58,157.54,148.96
58.1,444.0,11556.0,-13420.0,-166.69,-170.04,139.27,137.3
58.17,412.0,13508.0,-10852.0,-170.66,-173.84,128.78,125.38
58.24,392.0,14888.0,-8348.0,-167.79,-170.67,119.28,113.93
58.31,396.0,16124.0,-4736.0,-171.5,-173.9,106.37,102.28
58.38,448.0,16216.0,-704.0,-169.37,-171.4,92.49,90.53
58.45,128.0,15848.0,2980.0,-186.44,-188.29,79.35,78.12
58.52,140.0,14692.0,5764.0,-180.87,-182.62,68.58,66.22
58.58,588.0,12468.0,8704.0,-175.49,-177.03,55.08,54.48
58.65,80.0,10324.0,10956.0,-171.34,-172.83,43.3,42.98
58.72,304.0,7484.0,12928.0,-177.74,-179.2,30.07,30.91
58.78,496.0,4440.0,14112.0,-183.37,-184.91,17.46,18.45
58.85,360.0,328.0,15236.0,-186.48,-188.1,1.23,5.38
58.91,520.0,-1976.0,14740.0,-172.99,-174.97,-7.64,-5.94
58.98,468.0,-5388.0,13924.0,-168.55,-170.67,-21.15,-17.9
59.05,372.0,-9768.0,12000.0,-177.38,-179.79,-39.15,-31.42
59.12,496.0,-10632.0,10756.0,-175.0,-178.08,-44.67,-43.95
59.19,304.0,-13644.0,7792.0,-188.63,-191.77,-60.27,-57.86
59.26,200.0,-15540.0,4688.0,-171.81,-175.16,-73.21,-70.45
59.33,348.0,-16184.0,764.0,-167.71,-171.3,-87.3,-82.97
59.4,964.0,-16228.0,-2396.0,-179.37,-183.34,-98.4,-95.9
59.47,804.0,-15488.0,-5896.0,-178.57,-182.77,-110.84,-109.09
59.55,532.0,-13900.0,-9712.0,-182.48,-186.83,-124.94,-123.0
59.62,436.0,-11264.0,-12780.0,-178.54,-183.06,-138.61,-136.64
59.69,564.0,-10700.0,-14408.0,-191.6,-196.3,-143.4,-150.33
59.77,492.0,-5824.0,-16724.0,-164.95,-169.03,-160.8,-162.64
59.84,564.0,-2192.0,-17712.0,-168.27,-172.18,-172.95,-174.97
59.91,452.0,1972.0,-17448.0,-176.31,-180.04,173.55,172.05
59.98,556.0,5556.0,-16964.0,-178.32,-181.91,161.87,159.6
60.05,480.0,10564.0,-14444.0,-184.14,-187.52,143.82,146.17
60.12,652.0,11648.0,-12740.0,-176.8,-180.4,137.56,133.83
60.2,424.0,12928.0,-11512.0,-189.27,-192.54,131.68,121.45
60.27,72.0,15780.0,-6236.0,-176.01,-178.35,111.56,109.09
60.34,612.0,16008.0,-3652.0,-166.07,-168.19,102.85,98.1
60.4,208.0,16188.0,-44.0,-170.44,-172.13,90.16,86.68
60.47,544.0,15740.0,3128.0,-180.0,-181.38,78.76,75.22
60.54,212.0,14384.0,6684.0,-180.92,-181.99,65.08,63.29
60.6,412.0,13068.0,9000.0,-188.11,-189.03,55.44,51.2
60.67,400.0,9940.0,11240.0,-171.21,-171.75,41.49,39.93
60.74,576.0,6776.0,13792.0,-171.44,-171.84,26.16,28.21
60.8,272.0,3436.0,14884.0,-180.85,-181.43,13.0,15.76
60.87,300.0,796.0,14992.0,-180.84,-181.67,3.04,3.57
60.93,332.0,-3288.0,14916.0,-176.02,-176.89,-12.43,-8.18
61.0,520.0,-6468.0,13844.0,-166.37,-167.6,-25.04,-20.29
61.07,508.0,-8828.0,12568.0,-171.54,-173.19,-35.08,-32.69
61.14,408.0,-12420.0,9660.0,-169.89,-171.75,-52.13,-45.51
61.21,548.0,-14708.0,6452.0,-183.8,-186.24,-66.31,-59.38
61.28,468.0,-15764.0,3892.0,-176.5,-179.54,-76.13,-72.4
61.35,728.0,-16620.0,-272.0,-180.49,-183.86,-90.94,-85.89
61.42,244.0,-16436.0,-3448.0,-174.04,-177.85,-101.85,-98.7
61.5,596.0,-15596.0,-7288.0,-174.2,-178.29,-115.05,-111.94
61.57,448.0,-14064.0,-10316.0,-179.33,-183.7,-126.26,-125.47
61.64,792.0,-10824.0,-13348.0,-174.19,-178.63,-140.96,-138.98
61.72,520.0,-7092.0,-16320.0,-183.94,-188.55,-156.51,-153.38
61.79,468.0,-4520.0,-17356.0,-176.89,-181.79,-165.4,-166.53
61.86,712.0,-2980.0,-17572.0,-182.25,-187.05,-170.37,-179.1
61.94,296.0,1824.0,-17524.0,-171.37,-175.37,174.06,168.75
62.01,220.0,5716.0,-16544.0,-173.49,-177.01,160.94,156.88
62.08,428.0,7944.0,-15360.0,-178.7,-181.86,152.65,145.11
62.15,324.0,11020.0,-12988.0,-173.13,-175.61,139.69,133.6
62.22,236.0,14796.0,-8788.0,-185.2,-187.13,120.71,120.34
62.29,540.0,15204.0,-7192.0,-178.31,-180.21,115.32,108.58
62.36,388.0,16192.0,-4420.0,-191.76,-193.05,105.27,96.22
62.43,472.0,16148.0,384.0,-175.76,-176.25,88.64,84.59
62.49,468.0,15444.0,3904.0,-174.44,-174.56,75.81,73.42
62.56,300.0,14448.0,6824.0,-180.96,-180.88,64.72,61.72
62.63,128.0,11476.0,10620.0,-182.91,-182.56,47.22,49.28
62.69,460.0,9124.0,12124.0,-174.88,-174.71,36.96,37.38
62.76,284.0,6600.0,13420.0,-165.84,-165.71,26.19,26.3
62.83,284.0,3452.0,14484.0,-173.89,-173.77,13.41,14.56
62.89,660.0,-880.0,14796.0,-173.88,-173.86,-3.4,2.25
62.96,568.0,-4048.0,14672.0,-190.42,-190.89,-15.42,-10.83
63.03,484.0,-5948.0,14188.0,-178.8,-179.67,-22.74,-23.32
63.1,416.0,-10592.0,11196.0,-165.97,-166.79,-43.41,-35.9
63.17,656.0,-12084.0,9216.0,-171.75,-173.22,-52.67,-48.69
63.24,464.0,-14472.0,6496.0,-176.99,-178.82,-65.83,-61.71
63.31,472.0,-15820.0,3196.0,-183.66,-185.84,-78.58,-75.13
63.38,116.0,-16104.0,-1100.0,-180.11,-182.6,-93.91,-88.56
63.45,536.0,-15492.0,-4884.0,-175.85,-178.82,-107.5,-101.95
63.52,668.0,-15164.0,-7568.0,-166.3,-169.75,-116.52,-114.61
63.6,500.0,-13384.0,-11004.0,-169.5,-173.13,-129.43,-127.52
63.67,532.0,-10396.0,-13896.0,-180.3,-184.09,-143.2,-141.41
63.75,396.0,-8476.0,-15200.0,-175.3,-179.26,-150.85,-154.28
63.82,536.0,-4184.0,-17220.0,-181.89,-185.53,-166.34,-167.68
63.89,476.0,-108.0,-18008.0,-177.34,-180.87,-179.66,-180.77
63.97,384.0,3268.0,-18128.0,-193.38,-196.81,169.78,165.58
64.04,228.0,6888.0,-16352.0,-168.06,-171.11,157.16,154.01
64.11,204.0,11076.0,-13848.0,-173.2,-175.96,141.35,141.65
64.18,176.0,13564.0,-11740.0,-182.48,-185.27,130.88,128.75
64.25,276.0,13980.0,-10024.0,-177.41,-180.01,125.64,117.05
64.32,488.0,15440.0,-6108.0,-184.27,-186.1,111.58,104.7
64.39,116.0,16944.0,-1292.0,-182.68,-183.89,94.36,92.12
64.46,232.0,15708.0,1572.0,-177.23,-178.24,84.29,80.51
64.52,292.0,15148.0,4692.0,-166.54,-167.21,72.79,69.73
64.59,460.0,13568.0,7900.0,-172.87,-173.27,59.79,58.35
64.66,348.0,11052.0,10152.0,-174.71,-174.99,47.43,46.75
64.72,424.0,8808.0,12300.0,-188.72,-188.93,35.61,34.12
64.79,560.0,5952.0,13924.0,-176.16,-176.25,23.14,22.44
64.86,268.0,2204.0,14992.0,-165.6,-165.63,8.36,11.05
64.92,284.0,-364.0,15060.0,-166.87,-167.13,-1.38,-0.09
64.99,460.0,-4084.0,14652.0,-179.49,-179.86,-15.57,-12.45
65.06,364.0,-6884.0,13408.0,-170.63,-171.27,-27.18,-24.73
65.13,536.0,-9140.0,12156.0,-185.17,-186.02,-36.94,-37.65
65.2,632.0,-13320.0,8248.0,-171.41,-172.2,-58.23,-50.63
65.27,760.0,-14956.0,5300.0,-171.22,-172.68,-70.49,-63.56
65.34,704.0,-16080.0,2056.0,-177.09,-179.16,-82.71,-76.82
65.41,656.0,-16176.0,-1032.0,-174.09,-176.68,-93.65,-89.67
65.48,772.0,-15924.0,-3672.0,-186.86,-189.8,-102.99,-103.12
65.55,456.0,-15112.0,-8516.0,-167.78,-170.71,-119.4,-116.03
65.63,560.0,-12900.0,-11656.0,-165.75,-168.98,-132.1,-128.81
65.7,500.0,-9520.0,-14572.0,-173.25,-176.77,-146.84,-142.49
65.78,508.0,-7040.0,-16320.0,-174.21,-178.13,-156.67,-155.65
65.85,612.0,-3500.0,-17416.0,-178.65,-182.65,-168.64,-168.97
65.92,320.0,-500.0,-17676.0,-173.89,-177.86,-178.38,-181.57
65.99,368.0,4668.0,-17220.0,-187.36,-191.05,164.83,164.68
66.06,276.0,7552.0,-16000.0,-165.06,-168.73,154.73,153.08
66.13,240.0,9672.0,-14352.0,-167.69,-171.21,146.02,141.65
66.2,308.0,12468.0,-11416.0,-176.34,-179.47,132.48,129.47
66.27,192.0,15280.0,-7524.0,-170.59,-173.45,116.22,117.04
66.35,320.0,15752.0,-4564.0,-178.12,-181.06,106.16,104.57
66.42,316.0,15968.0,-1704.0,-176.51,-179.3,96.09,92.47
66.48,200.0,15728.0,2068.0,-190.21,-192.68,82.51,79.76
66.55,312.0,14760.0,5008.0,-175.81,-178.03,71.26,68.25
66.62,376.0,13028.0,8140.0,-168.05,-170.0,58.0,57.02
66.68,640.0,10900.0,10900.0,-169.78,-171.65,45.0,45.5
66.75,260.0,8092.0,13124.0,-182.67,-184.59,31.66,32.83
66.82,492.0,5012.0,14460.0,-177.23,-179.25,19.12,20.67
66.88,520.0,1864.0,14848.0,-189.08,-191.24,7.16,7.83
66.95,480.0,-1680.0,15044.0,-172.27,-174.48,-6.37,-3.76
67.02,132.0,-5444.0,14340.0,-173.02,-175.46,-20.79,-16.2
67.09,388.0,-8140.0,13096.0,-182.2,-185.03,-31.86,-29.44
67.16,724.0,-12948.0,9888.0,-178.92,-181.97,-52.63,-43.31
67.23,984.0,-13468.0,8160.0,-177.08,-180.94,-58.79,-56.27
67.3,720.0,-15364.0,4872.0,-166.29,-170.37,-72.41,-68.64
67.37,484.0,-16304.0,1396.0,-171.9,-176.31,-85.11,-81.43
67.44,500.0,-16584.0,-2416.0,-172.14,-176.88,-98.29,-94.29
67.51,912.0,-16164.0,-6780.0,-183.03,-188.12,-112.76,-108.21
67.58,588.0,-14792.0,-9044.0,-188.84,-194.33,-121.44,-122.32
67.65,556.0,-12232.0,-12112.0,-163.73,-169.14,-134.72,-134.69
67.73,580.0,-9160.0,-14984.0,-173.32,-178.74,-148.56,-148.03
67.8,476.0,-6076.0,-16480.0,-168.94,-174.4,-159.76,-160.67
67.87,596.0,-2184.0,-17620.0,-173.37,-178.76,-172.93,-173.66
67.95,528.0,1964.0,-18004.0,-178.66,-183.98,173.77,172.98
68.02,456.0,4084.0,-17120.0,-182.95,-188.19,166.58,160.57
68.09,536.0,8236.0,-15904.0,-187.3,-192.0,152.62,147.76
68.16,284.0,12136.0,-13352.0,-173.03,-177.3,137.73,135.62
68.23,344.0,13528.0,-11012.0,-170.95,-175.02,129.15,123.85
68.3,344.0,15172.0,-8200.0,-174.5,-178.1,118.39,112.01
68.37,428.0,16044.0,-4352.0,-172.31,-175.33,105.18,100.35
68.44,316.0,16544.0,-300.0,-169.79,-172.38,91.04,88.59
68.51,68.0,15796.0,2828.0,-185.39,-187.77,79.85,76.48
68.57,344.0,14868.0,5692.0,-179.6,-181.67,69.05,65.05
68.64,680.0,12492.0,8820.0,-172.3,-174.02,54.78,53.58
68.71,536.0,10460.0,11224.0,-167.88,-169.5,42.98,42.35
68.77,384.0,7724.0,13056.0,-177.69,-179.25,30.61,30.24
68.84,604.0,4500.0,14264.0,-181.94,-183.47,17.51,17.94
68.91,240.0,120.0,15164.0,-185.04,-186.61,0.45,4.93
68.97,316.0,-2328.0,14488.0,-173.26,-175.22,-9.13,-6.52
69.04,372.0,-5376.0,14104.0,-170.16,-172.35,-20.87,-18.48
69.11,532.0,-9560.0,12068.0,-175.46,-177.85,-38.39,-31.73
69.18,656.0,-10916.0,10812.0,-173.04,-176.01,-45.27,-44.17
69.25,436.0,-13748.0,8300.0,-189.94,-193.01,-58.88,-57.99
69.32,672.0,-15568.0,4032.0,-165.76,-168.9,-75.48,-70.42
69.39,772.0,-16400.0,684.0,-168.78,-172.37,-87.61,-83.04
69.46,432.0,-16368.0,-2984.0,-178.69,-182.69,-100.33,-96.14
69.53,540.0,-15660.0,-5692.0,-179.23,-183.59,-109.97,-109.44
69.6,408.0,-13428.0,-9908.0,-185.5,-189.91,-126.42,-123.68
69.68,472.0,-12216.0,-12660.0,-169.69,-174.34,-136.02,-136.38
69.75,744.0,-9788.0,-14892.0,-191.99,-196.61,-146.68,-150.49
69.83,316.0,-5596.0,-17028.0,-166.08,-170.36,-161.81,-162.82
69.9,732.0,-2352.0,-17852.0,-169.4,-173.59,-172.49,-175.18
69.97,392.0,840.0,-17524.0,-175.87,-179.81,177.26,172.3
70.04,356.0,5332.0,-17060.0,-178.73,-182.23,162.64,160.07
70.11,392.0,8672.0,-15252.0,-185.45,-188.71,150.38,147.26
70.18,492.0,10264.0,-13728.0,-173.69,-176.67,143.22,135.83
70.25,348.0,14076.0,-9860.0,-185.74,-188.06,125.01,122.75
70.32,428.0,16468.0,-7348.0,-169.84,-171.96,114.05,111.09
70.39,468.0,15964.0,-4184.0,-167.34,-169.2,104.69,99.86
70.46,284.0,15900.0,-428.0,-167.59,-169.01,91.54,88.59
70.53,584.0,15480.0,3276.0,-181.44,-182.6,78.05,76.59
70.59,536.0,14728.0,6488.0,-177.63,-178.67,66.23,64.83
70.66,116.0,13088.0,8124.0,-189.33,-190.24,58.17,52.8
70.73,412.0,10120.0,11468.0,-171.4,-171.84,41.43,41.34
70.8,212.0,7096.0,13680.0,-173.37,-173.8,27.42,29.31
70.86,332.0,4388.0,14572.0,-181.45,-182.05,16.76,17.12
70.93,476.0,128.0,15196.0,-180.84,-181.47,0.48,4.5
70.99,100.0,-3012.0,14800.0,-170.51,-171.49,-11.5,-6.94
71.06,484.0,-6272.0,14080.0,-164.4,-165.78,-24.01,-18.97
71.13,584.0,-8988.0,12436.0,-172.65,-174.46,-35.86,-31.67
71.2,420.0,-11644.0,10512.0,-172.4,-174.58,-47.92,-44.32
71.27,724.0,-14360.0,6776.0,-184.9,-187.39,-64.74,-58.41
71.34,484.0,-15256.0,3644.0,-176.16,-179.2,-76.57,-71.56
71.41,612.0,-16172.0,-256.0,-170.94,-174.42,-90.91,-84.55
71.48,536.0,-16256.0,-2576.0,-174.54,-178.59,-99.0,-97.25
71.55,432.0,-15632.0,-7040.0,-175.4,-179.6,-114.24,-110.47
71.63,564.0,-14192.0,-9896.0,-180.42,-184.95,-124.89,-124.1
71.7,532.0,-10716.0,-13324.0,-175.45,-180.05,-141.19,-137.71
71.77,448.0,-9384.0,-14604.0,-185.23,-190.14,-147.28,-151.31
71.85,728.0,-6112.0,-16596.0,-174.95,-179.51,-159.78,-163.91
71.92,352.0,-1216.0,-17692.0,-178.8,-182.98,-176.07,-177.16
71.99,472.0,2508.0,-17836.0,-174.34,-178.42,172.0,170.04
72.06,500.0,5492.0,-16876.0,-174.97,-178.87,161.97,158.02
72.13,572.0,9188.0,-15064.0,-182.89,-186.44,148.62,145.38
72.2,528.0,12216.0,-12628.0,-174.19,-177.45,135.95,133.3
72.27,660.0,12668.0,-11212.0,-187.77,-190.79,131.51,121.07
72.35,356.0,15256.0,-6708.0,-176.55,-178.63,113.73,108.98
72.42,532.0,16240.0,-3204.0,-174.84,-176.5,101.16,97.14
72.48,516.0,16216.0,-8.0,-173.4,-174.7,90.03,85.65
72.55,284.0,15696.0,3564.0,-177.96,-178.87,77.21,74.45
72.62,204.0,13872.0,6736.0,-182.36,-183.02,64.1,62.44
72.68,672.0,11796.0,9496.0,-186.75,-187.27,51.17,50.08
72.75,384.0,9912.0,11724.0,-172.39,-172.81,40.21,38.73
72.82,268.0,6732.0,13516.0,-170.49,-170.78,26.48,27.23
72.88,480.0,3072.0,14732.0,-178.38,-178.74,11.78,14.91
72.95,352.0,1192.0,15004.0,-178.66,-179.3,4.54,3.12
73.01,572.0,-2824.0,14936.0,-182.73,-183.24,-10.71,-8.93
73.08,484.0,-7020.0,13328.0,-171.59,-172.25,-27.78,-21.55
73.15,388.0,-9380.0,12324.0,-169.86,-171.06,-37.28,-33.92
73.22,360.0,-12964.0,9324.0,-168.33,-169.82,-54.28,-46.72
73.29,316.0,-14680.0,6580.0,-181.82,-183.97,-65.86,-60.27
73.36,376.0,-15732.0,3404.0,-177.79,-180.44,-77.79,-73.43
73.43,616.0,-16556.0,732.0,-183.95,-186.97,-87.47,-86.61
73.5,568.0,-16312.0,-3616.0,-173.61,-176.71,-102.5,-99.18
73.57,628.0,-15676.0,-7340.0,-173.46,-176.85,-115.09,-112.28
73.65,456.0,-13724.0,-10224.0,-178.82,-182.47,-126.69,-125.74
73.72,584.0,-11332.0,-13556.0,-174.88,-178.61,-140.11,-139.13
73.8,496.0,-7192.0,-16328.0,-182.56,-186.38,-156.23,-153.33
73.87,676.0,-4348.0,-17316.0,-180.31,-184.39,-165.9,-166.72
73.94,336.0,-2284.0,-17456.0,-182.15,-186.15,-172.55,-179.45
74.02,540.0,1848.0,-17564.0,-171.39,-174.77,173.99,168.47
74.09,492.0,5720.0,-16580.0,-171.82,-174.7,160.97,156.78
74.16,632.0,7140.0,-15652.0,-180.07,-182.57,155.48,145.3
74.23,604.0,11764.0,-12608.0,-179.67,-181.25,136.98,133.11
74.3,344.0,15024.0,-8404.0,-186.01,-187.24,119.22,119.73
74.37,596.0,14728.0,-8240.0,-179.6,-180.88,119.23,108.44
74.44,548.0,15700.0,-4988.0,-191.03,-191.35,107.63,96.47
74.51,220.0,15980.0,152.0,-173.02,-172.33,89.46,85.14
74.57,336.0,15452.0,3996.0,-172.56,-171.49,75.5,74.06
74.64,436.0,13876.0,6940.0,-181.58,-180.39,63.43,62.18
74.71,36.0,11464.0,10648.0,-182.56,-181.26,47.11,49.75
74.77,432.0,9580.0,11924.0,-176.38,-175.31,38.78,38.12
74.84,244.0,6500.0,13624.0,-165.96,-164.83,25.51,26.94
74.91,396.0,3348.0,14816.0,-173.91,-172.9,12.73,15.1
74.97,380.0,-980.0,14976.0,-174.31,-173.51,-3.74,2.73
75.04,192.0,-4016.0,14540.0,-189.0,-188.76,-15.44,-10.28
75.11,456.0,-6424.0,13576.0,-177.63,-177.84,-25.32,-23.0
75.18,620.0,-10460.0,11224.0,-164.9,-165.31,-42.98,-35.48
75.25,420.0,-12064.0,9692.0,-172.89,-173.96,-51.22,-48.2
75.32,636.0,-14440.0,6532.0,-176.5,-177.83,-65.66,-61.19
75.39,712.0,-16136.0,3276.0,-182.5,-184.22,-78.52,-74.56
75.46,644.0,-16164.0,-1484.0,-179.9,-181.97,-95.25,-88.17
75.53,944.0,-15908.0,-4816.0,-176.73,-179.43,-106.84,-101.56
75.6,492.0,-14976.0,-7844.0,-167.66,-170.82,-117.64,-114.46
75.68,632.0,-13556.0,-10984.0,-173.05,-176.49,-129.02,-127.56
75.75,996.0,-10000.0,-14016.0,-180.6,-184.17,-144.49,-141.6
75.82,376.0,-7736.0,-15660.0,-177.44,-181.28,-153.71,-154.9
75.9,552.0,-4256.0,-16980.0,-181.82,-185.55,-165.93,-168.18
75.97,736.0,-88.0,-17760.0,-177.58,-181.11,-179.72,-181.24
76.04,520.0,2072.0,-17800.0,-194.04,-197.43,173.36,165.73
76.11,576.0,6872.0,-16140.0,-168.67,-171.37,156.94,154.1
76.18,512.0,11380.0,-13812.0,-171.75,-174.19,140.51,141.75
76.25,604.0,12240.0,-12528.0,-178.25,-180.81,135.67,129.66
76.32,248.0,14088.0,-9380.0,-176.66,-178.67,123.66,117.72
76.39,464.0,15240.0,-6180.0,-183.33,-184.81,112.07,105.6
76.46,0.0,16756.0,-1232.0,-183.45,-184.35,94.21,92.87
76.53,384.0,15868.0,1416.0,-177.53,-178.31,84.9,81.6
76.6,188.0,15340.0,4560.0,-166.25,-166.74,73.44,70.8
76.66,160.0,13684.0,7760.0,-174.35,-174.61,60.44,59.29
76.73,576.0,11184.0,10136.0,-176.24,-176.39,47.81,47.54
76.8,228.0,9100.0,12004.0,-188.46,-188.59,37.17,35.02
76.87,428.0,6120.0,13788.0,-176.34,-176.28,23.93,23.32
76.93,528.0,2040.0,14772.0,-166.27,-166.17,7.86,11.75
77.0,360.0,-192.0,15176.0,-167.35,-167.58,-0.72,0.59
77.06,380.0,-4040.0,14716.0,-181.02,-181.37,-15.35,-11.75
77.13,524.0,-7564.0,13572.0,-170.93,-171.59,-29.13,-24.33
77.2,520.0,-9712.0,12512.0,-185.79,-186.86,-37.82,-37.44
77.27,600.0,-13436.0,8368.0,-171.77,-172.88,-58.09,-50.47
77.34,520.0,-14984.0,5320.0,-171.71,-173.48,-70.45,-63.46
77.41,460.0,-15992.0,2092.0,-177.18,-179.57,-82.55,-76.74
77.48,516.0,-16260.0,-820.0,-175.53,-178.43,-92.89,-89.62
77.55,116.0,-16380.0,-3348.0,-188.33,-191.51,-101.55,-102.84
77.63,696.0,-14880.0,-8264.0,-163.74,-166.81,-119.05,-115.49
77.7,540.0,-12848.0,-11728.0,-168.2,-171.59,-132.39,-128.53
77.77,456.0,-10112.0,-14464.0,-176.27,-180.0,-145.04,-142.25
77.85,636.0,-6548.0,-16784.0,-172.41,-176.4,-158.69,-155.72
77.92,468.0,-3236.0,-18188.0,-177.47,-181.73,-169.91,-169.12
77.99,792.0,-448.0,-17164.0,-173.09,-177.42,-178.5,-181.69
78.07,264.0,4420.0,-16996.0,-187.94,-191.97,165.42,164.58
78.14,700.0,7696.0,-15648.0,-164.95,-168.91,153.81,152.88
78.21,140.0,9320.0,-14992.0,-168.63,-172.51,148.13,141.63
78.28,296.0,12428.0,-11608.0,-176.91,-180.2,133.05,129.47
78.35,312.0,15164.0,-7360.0,-172.32,-175.29,115.89,116.88
78.42,120.0,15904.0,-4768.0,-178.13,-181.19,106.69,104.48
78.49,704.0,15672.0,-1740.0,-176.99,-179.85,96.34,92.39
78.56,52.0,16272.0,1640.0,-192.87,-195.38,84.24,79.72
78.62,228.0,14892.0,5232.0,-166.56,-168.66,70.64,68.86
78.69,692.0,13276.0,8020.0,-169.2,-171.15,58.86,57.6
78.76,100.0,11224.0,11024.0,-171.35,-173.19,45.52,45.98
78.82,244.0,7756.0,13116.0,-184.27,-186.15,30.6,33.04
78.89,652.0,4740.0,13900.0,-178.91,-181.0,18.83,20.73
78.96,240.0,1892.0,14900.0,-180.44,-182.69,7.24,8.39
79.02,656.0,-2320.0,14824.0,-173.76,-176.12,-8.89,-3.63
79.09,412.0,-5304.0,14276.0,-176.36,-179.17,-20.38,-16.27
79.16,416.0,-7356.0,13652.0,-182.68,-185.85,-28.32,-29.16
79.23,636.0,-12304.0,9880.0,-179.76,-182.85,-51.24,-42.96
79.3,496.0,-13624.0,8036.0,-170.42,-174.24,-59.47,-55.62
79.37,552.0,-15152.0,5208.0,-168.05,-172.21,-71.03,-68.03
79.44,664.0,-16200.0,1748.0,-174.11,-178.53,-83.84,-80.88
79.51,760.0,-16512.0,-1632.0,-172.4,-177.08,-95.64,-93.53
79.58,916.0,-15580.0,-6628.0,-183.93,-188.8,-113.05,-107.59
79.65,364.0,-14312.0,-9044.0,-180.55,-185.9,-122.29,-121.32
79.73,848.0,-13128.0,-12004.0,-174.02,-179.45,-132.44,-134.22
79.8,764.0,-10356.0,-14440.0,-171.34,-176.61,-144.35,-146.99
79.87,288.0,-6560.0,-16116.0,-169.56,-174.6,-157.85,-159.72
79.95,404.0,-2948.0,-17160.0,-173.58,-178.45,-170.25,-172.48
80.02,396.0,1332.0,-17896.0,-174.4,-179.07,175.74,174.56
80.09,432.0,3864.0,-17172.0,-184.4,-188.97,167.32,162.01
80.16,576.0,8580.0,-15460.0,-174.85,-178.94,150.97,149.66
80.23,356.0,12048.0,-13156.0,-174.88,-178.84,137.52,137.18
80.3,220.0,13292.0,-11248.0,-172.38,-176.32,130.24,125.28
80.37,420.0,14528.0,-8424.0,-166.85,-170.34,120.11,113.95
80.44,392.0,15932.0,-4772.0,-172.38,-175.32,106.67,102.24
80.51,212.0,16596.0,-592.0,-171.29,-173.83,92.04,90.3
80.58,596.0,16240.0,2788.0,-186.22,-188.61,80.26,78.0
80.65,328.0,14904.0,5508.0,-177.98,-180.16,69.72,66.38
80.71,128.0,13012.0,8636.0,-168.74,-170.63,56.43,55.15
80.78,264.0,10160.0,10976.0,-166.83,-168.61,42.79,43.77
80.85,432.0,7796.0,13004.0,-178.33,-180.19,30.94,31.48
80.92,248.0,4592.0,14508.0,-181.66,-183.58,17.56,19.04
80.98,656.0,1236.0,14788.0,-187.8,-189.84,4.78,6.2
81.05,500.0,-1352.0,14500.0,-172.6,-174.77,-5.33,-5.11
81.11,228.0,-5236.0,14316.0,-168.4,-170.58,-20.09,-17.04
81.18,636.0,-9612.0,12112.0,-178.03,-180.48,-38.44,-30.62
81.25,524.0,-11096.0,10648.0,-175.44,-178.56,-46.18,-43.43
81.33,532.0,-13496.0,8108.0,-188.96,-192.33,-59.0,-57.3
81.4,928.0,-15284.0,4080.0,-170.67,-174.19,-75.05,-70.09
81.47,752.0,-16556.0,920.0,-168.13,-172.08,-86.82,-82.64
81.53,532.0,-16252.0,-2840.0,-176.03,-180.35,-99.91,-95.59
81.61,512.0,-15660.0,-5704.0,-179.6,-184.3,-110.01,-108.82
81.68,332.0,-13772.0,-9612.0,-185.4,-190.21,-124.91,-122.98
81.75,740.0,-12664.0,-12420.0,-173.83,-178.81,-134.44,-135.88
81.83,844.0,-8916.0,-15364.0,-189.82,-194.68,-149.87,-150.28
81.9,356.0,-5544.0,-17064.0,-165.83,-170.65,-162.0,-162.67
81.97,368.0,-2176.0,-17836.0,-169.98,-174.74,-173.04,-175.18
82.05,420.0,1240.0,-17560.0,-177.76,-182.32,175.96,171.99
82.12,488.0,5728.0,-16936.0,-179.53,-183.73,161.31,159.37
82.19,552.0,7880.0,-15396.0,-183.76,-187.79,152.9,146.98
82.26,532.0,10740.0,-13304.0,-178.89,-182.39,141.09,134.99
82.33,520.0,14296.0,-10448.0,-186.76,-189.71,126.16,122.03
82.4,296.0,15500.0,-7328.0,-173.4,-175.97,115.3,110.18
82.47,436.0,16696.0,-3428.0,-169.21,-171.32,101.6,98.57
82.54,588.0,15984.0,-332.0,-170.28,-172.13,91.19,87.21
82.6,212.0,15628.0,2996.0,-183.07,-184.56,79.15,75.37
82.67,420.0,14924.0,5604.0,-185.23,-186.39,69.42,63.65
82.74,608.0,13124.0,7916.0,-189.48,-190.13,58.9,51.84
82.8,172.0,10056.0,11460.0,-168.19,-168.22,41.27,40.68
82.87,388.0,6716.0,13432.0,-172.54,-172.52,26.57,28.71
82.94,532.0,3620.0,14408.0,-181.02,-181.18,14.1,16.34
83.01,252.0,516.0,15412.0,-181.29,-181.65,1.92,3.96
83.07,540.0,-3220.0,14804.0,-173.85,-174.39,-12.27,-7.67
83.14,612.0,-6192.0,13684.0,-165.24,-166.18,-24.35,-19.68
83.21,412.0,-8728.0,12368.0,-172.4,-173.75,-35.21,-32.19
83.28,496.0,-12136.0,9636.0,-171.11,-172.72,-51.55,-45.07
83.35,484.0,-14840.0,6488.0,-184.49,-186.66,-66.39,-59.03
83.42,484.0,-15528.0,4000.0,-177.28,-180.1,-75.55,-72.05
83.49,796.0,-16116.0,-504.0,-175.18,-178.31,-91.79,-85.32
83.56,-148.0,-16224.0,-2988.0,-174.72,-178.41,-100.44,-98.09
83.63,456.0,-15860.0,-7228.0,-175.26,-179.16,-114.5,-111.55
83.7,704.0,-14544.0,-10212.0,-181.2,-185.36,-125.07,-125.11
83.78,776.0,-10368.0,-13756.0,-178.66,-182.82,-142.99,-139.17
83.85,468.0,-7236.0,-16716.0,-186.63,-191.14,-156.59,-153.72
83.93,484.0,-5436.0,-17320.0,-168.33,-173.09,-162.58,-165.95
84.0,348.0,-1384.0,-17764.0,-177.13,-181.59,-175.55,-178.81
84.07,572.0,2628.0,-18044.0,-172.41,-176.57,171.71,168.66
84.14,296.0,5776.0,-16776.0,-173.55,-177.43,161.0,156.78
84.21,484.0,8112.0,-15460.0,-179.71,-183.21,152.31,144.9
84.28,564.0,11924.0,-13036.0,-173.25,-176.09,137.55,133.14
84.35,540.0,14356.0,-9544.0,-185.53,-187.96,123.62,120.21
84.42,680.0,15372.0,-6812.0,-179.26,-181.39,113.9,108.24
84.49,496.0,16352.0,-3284.0,-188.45,-190.08,101.36,95.66
84.56,312.0,16536.0,272.0,-176.08,-177.19,89.06,84.08
84.63,380.0,15572.0,3808.0,-174.93,-175.61,76.26,72.96
84.69,424.0,14364.0,6616.0,-181.42,-181.8,65.27,61.32
84.76,324.0,11324.0,10224.0,-183.12,-183.16,47.92,48.96
84.83,488.0,9524.0,11668.0,-174.34,-174.46,39.22,37.35
84.9,496.0,6632.0,13624.0,-167.11,-167.08,25.96,26.18
84.96,424.0,3304.0,14944.0,-174.95,-174.94,12.47,14.28
85.03,376.0,-192.0,14772.0,-175.84,-175.98,-0.74,2.17
85.1,432.0,-3040.0,14464.0,-191.05,-191.45,-11.87,-10.55
85.17,232.0,-5584.0,14624.0,-178.31,-178.82,-20.9,-22.81
85.24,424.0,-10364.0,11688.0,-165.66,-166.01,-41.56,-35.21
85.31,440.0,-12348.0,9004.0,-169.09,-169.99,-53.9,-48.0
85.38,476.0,-14268.0,6824.0,-178.13,-179.54,-64.44,-60.98
85.45,536.0,-15960.0,3120.0,-183.05,-184.76,-78.94,-74.46
85.52,420.0,-16084.0,-424.0,-181.44,-183.56,-91.51,-87.76
85.59,644.0,-16296.0,-4236.0,-171.07,-173.51,-104.57,-100.4
85.66,460.0,-15156.0,-7452.0,-169.66,-172.47,-116.18,-113.37
85.73,768.0,-13464.0,-10916.0,-176.87,-179.93,-129.03,-126.82
85.81,448.0,-10548.0,-13748.0,-178.11,-181.38,-142.5,-140.53
85.88,364.0,-8900.0,-15180.0,-181.06,-184.5,-149.62,-153.71
85.95,184.0,-6036.0,-16888.0,-185.22,-188.29,-160.33,-166.67
86.03,548.0,-1456.0,-17356.0,-180.54,-183.04,-175.2,-179.51
86.1,612.0,3316.0,-17444.0,-188.56,-190.66,169.24,166.85
86.17,448.0,6732.0,-16444.0,-168.41,-170.3,157.74,155.25
86.24,408.0,11008.0,-13972.0,-174.92,-176.59,141.77,142.76
86.31,404.0,12340.0,-12020.0,-180.83,-182.58,134.25,130.28
86.38,444.0,13608.0,-9912.0,-179.22,-180.62,126.07,118.42
86.45,328.0,16520.0,-5048.0,-184.4,-185.11,106.99,105.64
86.52,308.0,16880.0,-1492.0,-182.46,-183.05,95.05,93.08
86.59,332.0,16120.0,1328.0,-170.68,-171.09,85.29,81.91
86.66,620.0,15124.0,4560.0,-171.29,-171.4,73.22,70.77
86.72,356.0,13904.0,7620.0,-178.79,-178.68,61.28,59.11
86.79,316.0,11580.0,10272.0,-175.66,-175.37,48.43,47.52
86.86,368.0,8980.0,12036.0,-193.16,-192.78,36.73,34.69
86.93,280.0,5760.0,14316.0,-163.06,-162.51,21.92,23.63
86.99,388.0,2616.0,14720.0,-166.59,-166.18,10.08,12.27
87.06,384.0,-552.0,15020.0,-167.2,-166.98,-2.1,0.77
87.13,464.0,-4116.0,14636.0,-184.81,-184.84,-15.71,-11.83
87.2,496.0,-7088.0,13568.0,-178.64,-179.01,-27.58,-24.7
87.26,300.0,-9640.0,11960.0,-184.24,-184.86,-38.87,-37.76
87.33,412.0,-13244.0,8456.0,-174.34,-175.06,-57.44,-50.82
87.4,348.0,-15064.0,5316.0,-172.99,-174.29,-70.56,-63.83
87.47,372.0,-15928.0,2324.0,-177.97,-179.86,-81.7,-76.99
87.54,592.0,-16540.0,-1124.0,-175.37,-177.67,-93.89,-89.91
87.62,180.0,-16796.0,-3020.0,-188.58,-191.24,-100.19,-103.11
87.69,704.0,-14828.0,-8236.0,-163.81,-166.21,-119.05,-115.69
87.76,320.0,-12744.0,-11516.0,-170.72,-173.41,-132.1,-128.79
87.84,452.0,-10604.0,-14156.0,-173.33,-176.32,-143.16,-142.03
87.91,636.0,-6932.0,-16612.0,-175.34,-178.44,-157.35,-155.51
87.98,308.0,-3340.0,-17632.0,-177.66,-180.93,-169.27,-168.81
88.06,516.0,-108.0,-17688.0,-173.1,-176.4,-179.65,-181.48
88.13,308.0,4932.0,-17316.0,-188.46,-191.59,164.1,164.64
88.2,348.0,7160.0,-15884.0,-163.35,-166.54,155.74,153.29
88.27,460.0,9072.0,-14640.0,-168.06,-171.03,148.21,142.1
88.34,324.0,12440.0,-11400.0,-176.78,-179.19,132.5,129.89
88.41,220.0,15340.0,-7684.0,-172.11,-174.29,116.61,117.4
88.48,264.0,16176.0,-4884.0,-178.15,-180.4,106.8,105.0
88.55,236.0,15828.0,-2004.0,-176.96,-179.05,97.22,93.0
88.62,240.0,15696.0,1748.0,-192.44,-194.15,83.65,80.27
88.69,504.0,14860.0,5240.0,-169.35,-170.76,70.58,69.06
88.75,8.0,13080.0,8052.0,-168.18,-169.46,58.38,57.82
88.82,356.0,11020.0,11100.0,-171.24,-172.47,44.79,46.47
88.88,312.0,7656.0,13120.0,-184.09,-185.47,30.27,33.49
88.95,600.0,4728.0,14096.0,-178.02,-179.67,18.54,21.17
89.02,348.0,1684.0,14568.0,-176.14,-178.02,6.59,8.99
89.08,604.0,-2316.0,14992.0,-167.11,-169.2,-8.78,-2.68
89.15,428.0,-5176.0,14220.0,-175.32,-177.94,-20.0,-15.31
89.22,432.0,-7504.0,13148.0,-184.53,-187.55,-29.71,-28.56
89.29,428.0,-12028.0,10072.0,-181.84,-184.97,-50.06,-42.43
89.36,512.0,-13464.0,7932.0,-173.29,-177.08,-59.5,-55.5
89.43,488.0,-15252.0,5172.0,-167.42,-171.56,-71.27,-67.91
89.5,544.0,-16308.0,1800.0,-172.8,-177.24,-83.7,-80.68
89.57,680.0,-16452.0,-2208.0,-171.47,-176.18,-97.64,-93.51
89.64,912.0,-15992.0,-6812.0,-184.42,-189.49,-113.07,-107.64
89.72,444.0,-14296.0,-9424.0,-176.44,-181.99,-123.39,-121.23
89.79,416.0,-12696.0,-12012.0,-166.16,-171.9,-133.41,-133.76
89.86,376.0,-9472.0,-14852.0,-170.84,-176.55,-147.47,-146.94
89.94,364.0,-6360.0,-16148.0,-170.73,-176.49,-158.5,-159.69
90.01,380.0,-3076.0,-17512.0,-173.92,-179.57,-170.04,-172.51
90.08,284.0,1236.0,-17856.0,-174.82,-180.25,176.04,174.5
90.15,392.0,3944.0,-17140.0,-184.62,-189.91,167.04,161.86
90.22,296.0,8580.0,-15540.0,-175.25,-180.07,151.1,149.46
90.29,316.0,12204.0,-13192.0,-175.37,-180.04,137.23,136.9
90.36,232.0,13216.0,-11244.0,-172.21,-176.85,130.39,125.01
90.43,344.0,14820.0,-8428.0,-167.18,-171.35,119.63,113.6
90.51,252.0,15664.0,-4840.0,-172.15,-175.78,107.17,101.96
90.58,296.0,16472.0,-452.0,-170.14,-173.29,91.57,90.02
90.64,568.0,15980.0,2872.0,-188.21,-191.23,79.81,77.55
90.71,380.0,14712.0,5796.0,-171.29,-174.11,68.5,66.21
90.78,280.0,13000.0,8496.0,-169.99,-172.61,56.83,54.92
90.84,456.0,10220.0,11024.0,-166.85,-169.3,42.83,43.53
90.91,356.0,8116.0,13028.0,-178.3,-180.81,31.92,31.34
90.98,188.0,4728.0,14248.0,-181.18,-183.63,18.36,19.0
91.04,404.0,892.0,14940.0,-186.47,-188.99,3.42,6.06
91.11,288.0,-2016.0,14920.0,-173.95,-176.7,-7.7,-5.43
91.18,668.0,-5384.0,14184.0,-170.81,-173.75,-20.79,-17.6
91.24,376.0,-9260.0,12212.0,-176.66,-179.87,-37.17,-30.94
91.31,408.0,-10916.0,10836.0,-174.15,-177.91,-45.21,-43.57
91.39,576.0,-13424.0,7876.0,-190.67,-194.57,-59.6,-57.63
91.46,364.0,-15600.0,4084.0,-164.62,-168.69,-75.33,-70.08
91.53,476.0,-16272.0,908.0,-169.21,-173.75,-86.81,-82.73
91.59,528.0,-16604.0,-2860.0,-177.25,-182.14,-99.77,-95.77
91.67,380.0,-16076.0,-5760.0,-180.15,-185.4,-109.71,-109.02
91.74,708.0,-13760.0,-9704.0,-185.98,-191.28,-125.19,-123.25
91.81,552.0,-12316.0,-12320.0,-173.53,-179.01,-135.01,-136.19
91.89,696.0,-8772.0,-15344.0,-187.47,-192.84,-150.24,-150.48
91.96,652.0,-5480.0,-17380.0,-166.15,-171.51,-162.5,-162.97
92.03,496.0,-1980.0,-18012.0,-171.18,-176.49,-173.73,-175.64
92.11,608.0,1388.0,-17656.0,-179.0,-184.14,175.51,171.42
92.18,476.0,5440.0,-16968.0,-179.11,-183.88,162.22,158.96
92.25,592.0,8240.0,-15220.0,-186.4,-190.88,151.57,146.27
92.32,496.0,10528.0,-13548.0,-169.05,-173.05,142.15,135.07
92.39,384.0,13636.0,-10416.0,-185.09,-188.45,127.37,122.31
92.46,412.0,15264.0,-6648.0,-164.47,-167.37,113.53,110.77
92.53,584.0,16012.0,-4336.0,-167.25,-169.91,105.15,99.59
92.6,376.0,15860.0,-476.0,-167.33,-169.49,91.72,88.33
92.66,552.0,15180.0,3140.0,-181.45,-183.31,78.31,76.35
92.73,656.0,14092.0,6412.0,-177.98,-179.67,65.53,64.49
92.8,64.0,13068.0,8440.0,-188.55,-190.14,57.14,52.38
92.86,168.0,10272.0,11260.0,-172.71,-173.89,42.37,41.12
92.93,788.0,6820.0,13404.0,-174.1,-175.17,26.97,28.99
93.0,180.0,4400.0,14364.0,-181.57,-182.82,17.03,16.81
93.06,276.0,20.0,15188.0,-181.55,-182.77,0.08,4.11
93.13,704.0,-2948.0,14824.0,-170.08,-171.66,-11.25,-7.11
93.2,420.0,-5828.0,13748.0,-166.02,-167.95,-22.97,-19.13
93.27,412.0,-9532.0,12220.0,-172.37,-174.64,-37.96,-32.06
93.34,376.0,-11532.0,10516.0,-171.51,-174.29,-47.64,-44.62
93.41,376.0,-14316.0,7412.0,-186.84,-189.88,-62.63,-58.6
93.48,292.0,-15296.0,3988.0,-169.99,-173.39,-75.39,-71.24
93.55,456.0,-16428.0,668.0,-165.77,-169.53,-87.67,-83.6
93.62,592.0,-16200.0,-2232.0,-177.34,-181.46,-97.84,-96.28
93.69,724.0,-15300.0,-6492.0,-177.35,-181.61,-112.99,-109.59
93.76,672.0,-13800.0,-10172.0,-183.74,-188.3,-126.39,-123.71
93.83,292.0,-12492.0,-12312.0,-173.24,-178.03,-134.58,-136.66
93.91,692.0,-8568.0,-14860.0,-188.21,-192.82,-150.03,-150.87
93.98,328.0,-5256.0,-16788.0,-165.72,-170.25,-162.62,-163.24
94.06,444.0,-2232.0,-17592.0,-167.02,-171.49,-172.77,-175.45
94.13,436.0,2044.0,-17380.0,-173.76,-178.0,173.29,171.73
94.2,356.0,5396.0,-16684.0,-176.45,-180.54,162.08,159.43
94.27,232.0,11128.0,-14244.0,-183.69,-187.54,142.0,145.81
94.34,284.0,11768.0,-12816.0,-173.74,-177.94,137.44,133.65
94.41,596.0,12372.0,-11744.0,-189.58,-193.44,133.51,121.44
94.48,588.0,14916.0,-7016.0,-173.5,-176.27,115.19,109.62
94.55,376.0,16396.0,-3092.0,-172.82,-175.1,100.68,97.74
94.62,332.0,16388.0,-40.0,-172.71,-174.72,90.14,86.2
94.69,248.0,15820.0,3488.0,-177.84,-179.5,77.57,74.77
94.75,296.0,13920.0,6680.0,-182.21,-183.62,64.36,62.72
94.82,520.0,11892.0,9420.0,-185.82,-187.09,51.62,50.38
94.89,352.0,9848.0,11748.0,-172.85,-174.01,39.97,38.9
94.95,348.0,6952.0,13532.0,-170.28,-171.34,27.19,27.43
95.02,684.0,3216.0,14768.0,-178.03,-179.11,12.29,15.12
95.09,272.0,1232.0,15240.0,-178.11,-179.44,4.62,3.3
95.15,576.0,-2616.0,15064.0,-182.66,-183.88,-9.85,-8.71
95.22,368.0,-6460.0,13756.0,-164.81,-166.12,-25.16,-20.52
95.29,320.0,-8964.0,12632.0,-169.06,-170.77,-35.36,-32.78
95.36,620.0,-13000.0,9236.0,-168.11,-170.05,-54.61,-45.75
95.43,860.0,-14644.0,6456.0,-183.17,-185.88,-66.21,-59.57
95.5,744.0,-15076.0,3760.0,-176.51,-179.8,-76.0,-72.57
95.57,868.0,-16892.0,728.0,-184.7,-188.3,-87.53,-85.93
95.64,204.0,-16692.0,-3000.0,-172.31,-176.04,-100.19,-98.28
95.71,696.0,-15568.0,-7492.0,-174.13,-178.03,-115.7,-111.62
95.78,524.0,-14212.0,-10228.0,-180.11,-184.37,-125.74,-125.18
95.86,760.0,-9876.0,-13672.0,-178.67,-182.99,-144.16,-139.37
95.93,492.0,-7092.0,-16116.0,-186.58,-191.32,-156.25,-153.69
96.0,496.0,-5048.0,-17084.0,-167.5,-172.48,-163.54,-165.99
96.08,376.0,-2428.0,-17780.0,-181.79,-186.55,-172.22,-178.79
96.15,592.0,1828.0,-17740.0,-172.31,-176.47,174.12,168.96
96.22,608.0,5476.0,-16664.0,-173.88,-177.57,161.81,157.12
96.29,532.0,8688.0,-15268.0,-180.99,-184.26,150.36,144.92
96.36,152.0,12908.0,-11928.0,-175.52,-178.3,132.74,132.47
96.43,516.0,14304.0,-9432.0,-187.07,-189.82,123.4,119.48
96.5,532.0,15628.0,-6984.0,-180.76,-183.16,114.08,107.5
96.57,180.0,16356.0,-3300.0,-186.87,-188.68,101.41,95.09
96.64,164.0,16364.0,316.0,-175.42,-176.67,88.89,83.59
96.71,272.0,15572.0,3768.0,-176.11,-176.89,76.4,72.47
96.77,240.0,14652.0,6756.0,-181.69,-182.13,65.25,60.86
96.84,572.0,11484.0,10048.0,-182.93,-182.98,48.82,48.66
96.91,112.0,9304.0,12096.0,-171.85,-171.88,37.57,37.06
96.97,240.0,6708.0,13700.0,-167.8,-167.79,26.09,25.89
97.04,636.0,3172.0,14752.0,-175.55,-175.52,12.14,13.95
97.11,424.0,236.0,14836.0,-175.83,-175.96,0.91,2.06
97.17,592.0,-2308.0,14532.0,-186.15,-186.37,-9.02,-9.69
97.24,876.0,-6720.0,13208.0,-170.6,-170.77,-26.97,-21.88
97.31,388.0,-9448.0,12304.0,-167.88,-168.49,-37.52,-34.08
97.38,468.0,-12956.0,9052.0,-167.24,-168.15,-55.06,-46.84
97.45,424.0,-14304.0,6476.0,-181.15,-182.77,-65.64,-60.28
97.52,360.0,-15764.0,3592.0,-178.33,-180.42,-77.16,-73.36
97.59,704.0,-16504.0,1072.0,-184.2,-186.63,-86.28,-86.4
97.66,616.0,-16420.0,-3788.0,-172.08,-174.5,-102.99,-99.09
97.73,460.0,-15640.0,-7136.0,-172.99,-175.76,-114.53,-112.06
97.8,496.0,-13716.0,-10620.0,-179.08,-182.06,-127.75,-125.64
97.88,584.0,-11840.0,-13260.0,-179.99,-183.16,-138.24,-139.12
97.95,396.0,-8012.0,-16384.0,-184.78,-187.87,-153.94,-153.17
98.03,864.0,-4832.0,-17312.0,-173.48,-176.64,-164.4,-165.9
98.1,584.0,-1760.0,-17980.0,-182.05,-185.08,-174.41,-178.87
98.17,232.0,1840.0,-17752.0,-172.59,-175.21,174.08,168.97
98.24,472.0,6128.0,-16620.0,-171.91,-174.07,159.76,157.12
98.31,472.0,7044.0,-15588.0,-178.63,-180.55,155.68,145.76
98.38,356.0,11360.0,-12780.0,-176.11,-177.13,138.37,133.92
98.45,188.0,15244.0,-8392.0,-184.25,-184.88,118.83,120.56
98.52,696.0,15112.0,-7128.0,-177.9,-178.68,115.25,108.86
98.59,428.0,15488.0,-4312.0,-188.43,-188.64,105.56,96.78
98.66,368.0,16188.0,840.0,-175.12,-174.55,87.03,85.01
98.73,284.0,15576.0,4204.0,-176.11,-175.35,74.9,73.65
98.8,136.0,13728.0,7644.0,-181.92,-181.05,60.89,61.49
98.86,400.0,11120.0,10584.0,-182.38,-181.57,46.41,49.04
98.93,240.0,9508.0,12160.0,-175.79,-175.21,38.02,37.25
99.0,548.0,6200.0,13532.0,-165.8,-165.15,24.62,26.05
99.06,508.0,3348.0,14764.0,-173.13,-172.61,12.78,14.34
99.13,476.0,-1060.0,15036.0,-173.73,-173.35,-4.03,2.02
99.2,260.0,-4016.0,14504.0,-188.4,-188.53,-15.48,-11.09
99.27,336.0,-6368.0,13756.0,-177.15,-177.67,-24.84,-23.66
99.34,816.0,-10516.0,11280.0,-164.98,-165.61,-42.99,-36.09
99.41,592.0,-12064.0,9556.0,-171.96,-173.19,-51.62,-48.74
99.48,756.0,-14408.0,6456.0,-176.73,-178.2,-65.86,-61.71
99.55,584.0,-16024.0,3100.0,-182.27,-184.12,-79.05,-75.08
99.62,208.0,-16092.0,-1324.0,-179.35,-181.55,-94.7,-88.54
99.69,952.0,-15900.0,-4656.0,-175.37,-178.11,-106.32,-101.75
99.76,508.0,-15048.0,-7848.0,-168.19,-171.33,-117.54,-114.65
99.84,532.0,-13552.0,-11048.0,-174.57,-177.97,-129.19,-127.84
99.91,448.0,-9916.0,-14060.0,-177.44,-180.97,-144.81,-141.67
99.98,368.0,-7644.0,-15388.0,-179.69,-183.49,-153.58,-154.92
100.06,732.0,-4388.0,-17116.0,-182.78,-186.46,-165.62,-168.23
100.13,376.0,460.0,-17944.0,-178.53,-181.97,178.53,178.29
100.2,432.0,4028.0,-17732.0,-190.84,-194.27,167.2,164.97
100.27,248.0,6764.0,-16472.0,-167.79,-171.01,157.68,153.37
100.34,292.0,11260.0,-13988.0,-173.24,-176.07,141.17,140.88
100.41,596.0,13088.0,-11852.0,-181.79,-184.6,132.16,128.08
100.49,288.0,13760.0,-10020.0,-175.98,-178.42,126.06,116.44
100.56,188.0,15540.0,-5916.0,-182.44,-184.02,110.84,104.03
100.63,524.0,16192.0,-2068.0,-180.45,-181.41,97.28,91.83
100.7,236.0,15772.0,1076.0,-186.63,-187.1,86.1,79.75
100.77,588.0,15144.0,5080.0,-165.59,-165.49,71.46,68.85
100.84,240.0,13660.0,8052.0,-169.76,-169.43,59.48,57.59
100.9,504.0,11000.0,10772.0,-171.14,-170.64,45.6,45.97
100.97,348.0,7788.0,13016.0,-184.44,-183.98,30.89,33.02
101.04,568.0,4696.0,14216.0,-178.65,-178.37,18.28,20.63
101.11,340.0,1756.0,14992.0,-183.01,-182.94,6.68,8.05
101.17,352.0,-1612.0,14956.0,-176.44,-176.49,-6.15,-3.83
101.24,572.0,-5480.0,14216.0,-175.4,-175.66,-21.08,-16.49
101.31,172.0,-7332.0,13588.0,-178.63,-179.29,-28.35,-29.12
101.38,384.0,-11788.0,10488.0,-176.08,-176.67,-48.34,-42.41
101.46,284.0,-13932.0,7832.0,-173.5,-174.61,-60.66,-55.63
101.53,632.0,-15340.0,4652.0,-165.07,-166.62,-73.13,-68.09
101.6,672.0,-16116.0,1076.0,-170.52,-172.52,-86.18,-81.0
101.67,800.0,-16424.0,-2628.0,-175.76,-178.22,-99.09,-94.26
101.74,544.0,-16040.0,-5948.0,-179.98,-182.88,-110.35,-107.77
101.82,700.0,-14192.0,-9552.0,-184.74,-187.86,-123.94,-121.96
101.89,568.0,-13200.0,-12060.0,-176.1,-179.4,-132.42,-134.95
101.97,992.0,-8520.0,-15824.0,-187.8,-190.87,-151.7,-149.6
102.04,420.0,-6124.0,-16996.0,-170.76,-174.02,-160.18,-162.25
102.11,468.0,-2476.0,-17952.0,-166.98,-170.05,-172.15,-174.57
102.19,608.0,2388.0,-17644.0,-175.96,-178.82,172.29,172.17
102.26,672.0,5820.0,-17008.0,-178.42,-181.26,161.11,159.49
102.33,388.0,9996.0,-14732.0,-179.76,-182.46,145.84,146.44
102.4,308.0,10820.0,-13752.0,-175.64,-178.39,141.8,134.67
102.47,356.0,12592.0,-11316.0,-189.33,-191.43,131.94,122.12
102.55,576.0,15132.0,-7220.0,-173.95,-175.17,115.51,110.17
102.62,540.0,16220.0,-3176.0,-175.11,-175.85,101.08,98.05
102.69,500.0,16248.0,-248.0,-175.75,-176.21,90.87,86.3
102.76,320.0,15544.0,3756.0,-176.84,-176.89,76.42,74.55
102.82,-48.0,14016.0,6976.0,-180.56,-180.45,63.54,62.44
102.89,428.0,11496.0,10152.0,-181.02,-180.8,48.55,50.0
102.96,480.0,9684.0,11796.0,-171.09,-171.01,39.38,38.35
103.03,32.0,6584.0,13628.0,-167.02,-166.84,25.79,26.89
103.09,256.0,3004.0,14884.0,-172.35,-172.27,11.41,14.96
103.16,516.0,-652.0,15396.0,-168.73,-168.96,-2.42,2.84
103.23,200.0,-3364.0,14696.0,-191.78,-192.47,-12.89,-10.31
103.3,268.0,-7032.0,13076.0,-166.21,-167.13,-28.27,-22.86
103.37,316.0,-9880.0,11484.0,-175.7,-177.09,-40.71,-36.02
103.44,500.0,-12516.0,9540.0,-178.27,-180.07,-52.68,-49.23
103.51,508.0,-14276.0,6540.0,-176.44,-178.55,-65.39,-62.29
103.58,552.0,-15540.0,2652.0,-180.76,-183.14,-80.32,-75.86
103.66,752.0,-16808.0,-1668.0,-177.47,-180.25,-95.67,-89.44
103.73,672.0,-16220.0,-4944.0,-181.61,-184.94,-106.95,-103.24
103.8,496.0,-15152.0,-8276.0,-164.69,-168.35,-118.64,-116.07
103.88,344.0,-13028.0,-11388.0,-169.35,-173.25,-131.16,-129.18
103.95,444.0,-10896.0,-13936.0,-177.12,-181.2,-141.98,-142.73
104.03,232.0,-6656.0,-16644.0,-173.51,-177.52,-158.2,-156.34
104.1,560.0,-3424.0,-17540.0,-177.37,-181.55,-168.95,-169.73
104.18,580.0,-92.0,-17604.0,-172.23,-176.33,-179.7,-182.46
104.25,412.0,4600.0,-17036.0,-188.54,-192.4,164.89,163.81
104.32,376.0,6988.0,-16272.0,-163.57,-167.33,156.76,152.47
104.39,316.0,8968.0,-14852.0,-166.63,-169.99,148.88,141.35
104.46,100.0,12856.0,-11260.0,-173.56,-176.25,131.21,129.1
104.53,484.0,14840.0,-8080.0,-170.55,-173.04,118.57,116.83
104.6,420.0,16052.0,-4284.0,-175.93,-178.27,104.94,104.25
104.68,604.0,16176.0,-1280.0,-173.17,-175.44,94.52,92.09
104.74,516.0,15916.0,2028.0,-191.78,-193.83,82.74,79.19
104.81,528.0,14612.0,5504.0,-161.3,-163.03,69.36,68.27
104.88,216.0,13216.0,8332.0,-165.73,-167.36,57.77,57.01
104.95,560.0,10836.0,10840.0,-167.24,-168.81,44.99,45.49
105.02,236.0,8052.0,12772.0,-179.31,-180.93,32.23,32.93
105.09,208.0,4516.0,14532.0,-179.59,-181.26,17.26,20.26
105.15,472.0,1088.0,14872.0,-186.96,-188.9,4.18,7.08
105.22,368.0,-2064.0,14492.0,-173.15,-175.35,-8.11,-4.84
105.29,320.0,-5444.0,14012.0,-169.01,-171.49,-21.23,-17.15
105.36,268.0,-9788.0,11984.0,-174.99,-177.83,-39.24,-30.82
105.43,280.0,-10772.0,10992.0,-172.85,-176.43,-44.42,-43.47
105.5,672.0,-13644.0,7660.0,-188.32,-191.98,-60.69,-57.69
105.57,612.0,-15720.0,4228.0,-165.32,-169.25,-74.95,-70.29
105.64,544.0,-16252.0,760.0,-167.02,-171.35,-87.32,-83.0
105.71,508.0,-16460.0,-2288.0,-175.23,-179.95,-97.91,-95.84
105.79,600.0,-15156.0,-6376.0,-177.24,-182.15,-112.82,-109.4
105.86,892.0,-13896.0,-10176.0,-183.2,-188.41,-126.22,-123.71
105.94,288.0,-12900.0,-12360.0,-170.41,-175.85,-133.78,-136.6
106.01,352.0,-7776.0,-15456.0,-187.17,-192.35,-153.29,-151.34
106.09,508.0,-5092.0,-16752.0,-164.58,-169.94,-163.09,-163.86
106.16,328.0,-2164.0,-17792.0,-181.68,-186.97,-173.07,-177.2
106.23,680.0,1768.0,-17708.0,-172.76,-177.67,174.3,170.15
106.3,552.0,5428.0,-16700.0,-174.23,-178.76,161.99,157.96
106.38,600.0,8648.0,-15148.0,-179.11,-183.27,150.28,145.54
106.45,584.0,11352.0,-13180.0,-173.08,-176.82,139.26,133.69
106.52,76.0,14688.0,-9088.0,-184.69,-187.92,121.75,120.32
106.59,208.0,15032.0,-7448.0,-178.69,-181.79,116.36,108.59
106.66,204.0,15852.0,-4392.0,-190.6,-193.01,105.49,96.08
106.73,180.0,15996.0,436.0,-174.7,-176.26,88.44,84.27
106.8,432.0,15284.0,4100.0,-174.07,-175.25,74.98,72.84
106.87,432.0,14140.0,7164.0,-177.9,-178.89,63.13,60.98
106.93,252.0,12272.0,9900.0,-179.32,-180.12,51.11,49.02
107.0,476.0,9352.0,11772.0,-177.34,-177.95,38.46,37.11
107.07,392.0,6152.0,13836.0,-164.93,-165.43,23.97,25.68
107.14,384.0,3132.0,14700.0,-169.95,-170.59,12.03,13.88
107.2,476.0,-732.0,15352.0,-167.77,-168.58,-2.73,1.87
107.27,400.0,-3940.0,14868.0,-191.04,-192.25,-14.84,-11.38
107.34,224.0,-7540.0,12896.0,-162.79,-164.31,-30.31,-23.85
107.41,288.0,-10744.0,11100.0,-176.47,-178.55,-44.07,-37.36
107.49,436.0,-12704.0,9324.0,-172.44,-175.11,-53.72,-50.4
107.56,676.0,-15300.0,5392.0,-172.97,-175.94,-70.59,-63.75
107.63,660.0,-16136.0,2316.0,-177.83,-181.4,-81.83,-77.21
107.7,700.0,-16576.0,-1048.0,-176.34,-180.33,-93.62,-90.42
107.77,176.0,-16736.0,-3268.0,-188.12,-192.39,-101.05,-103.92
107.85,760.0,-15068.0,-8340.0,-163.53,-167.55,-118.96,-116.65
107.92,528.0,-12780.0,-11640.0,-169.76,-173.98,-132.33,-129.88
107.99,456.0,-10496.0,-13880.0,-171.93,-176.37,-142.9,-143.14
108.07,464.0,-6952.0,-16488.0,-174.35,-178.77,-157.14,-156.67
108.14,284.0,-3888.0,-17372.0,-176.66,-181.12,-167.38,-169.8
108.22,560.0,324.0,-17328.0,-172.58,-176.82,178.93,177.28
108.29,316.0,4508.0,-17392.0,-186.73,-190.82,165.47,164.09
108.36,484.0,7780.0,-15856.0,-163.9,-167.87,153.86,152.35
108.43,404.0,11264.0,-14780.0,-167.34,-171.16,142.69,140.47
108.5,216.0,12848.0,-11744.0,-172.32,-175.95,132.43,128.3
108.58,332.0,14548.0,-7904.0,-169.84,-173.09,118.52,116.12
108.65,316.0,16140.0,-4236.0,-174.29,-177.33,104.71,103.65
108.72,452.0,16452.0,-720.0,-171.37,-174.31,92.51,91.4
108.79,432.0,15960.0,2816.0,-189.42,-192.26,79.99,78.55
108.85,84.0,14596.0,5764.0,-165.44,-168.15,68.45,67.29
108.92,672.0,12828.0,8664.0,-167.47,-170.08,55.97,55.93
108.99,316.0,10840.0,11012.0,-166.24,-168.85,44.55,44.49
109.06,356.0,8140.0,13200.0,-177.76,-180.36,31.66,32.01
109.12,364.0,4576.0,14216.0,-181.07,-183.7,17.84,19.36
109.19,560.0,552.0,15092.0,-185.92,-188.68,2.09,6.06
109.26,436.0,-2004.0,14816.0,-172.49,-175.6,-7.7,-5.54
109.33,472.0,-5360.0,13844.0,-167.86,-171.17,-21.16,-17.75
109.4,336.0,-9564.0,11964.0,-175.5,-179.1,-38.64,-31.37
109.47,456.0,-10316.0,10780.0,-173.77,-178.01,-43.74,-43.98
109.54,528.0,-13788.0,7560.0,-187.29,-191.51,-61.26,-58.17
109.61,456.0,-15768.0,4520.0,-169.51,-174.0,-74.0,-70.91
109.68,664.0,-16352.0,600.0,-165.86,-170.63,-87.9,-83.57
109.75,456.0,-16320.0,-2364.0,-170.98,-176.13,-98.24,-96.15
109.82,592.0,-15624.0,-6580.0,-176.52,-181.86,-112.84,-109.66
109.9,812.0,-14328.0,-10120.0,-182.05,-187.67,-125.23,-123.78
109.97,452.0,-11360.0,-12860.0,-171.48,-177.23,-138.54,-137.29
110.05,392.0,-7892.0,-15224.0,-186.47,-192.33,-152.6,-151.87
110.12,716.0,-5832.0,-16752.0,-168.02,-173.95,-160.81,-164.33
110.2,792.0,-1120.0,-17652.0,-171.05,-176.66,-176.37,-177.32
110.27,656.0,2492.0,-18096.0,-171.99,-177.51,172.16,169.8
110.34,656.0,5588.0,-16756.0,-173.47,-178.77,161.56,157.6
110.41,620.0,8112.0,-15184.0,-180.69,-185.63,151.89,145.26
110.49,248.0,12712.0,-12480.0,-178.16,-182.51,134.47,132.54
110.56,204.0,15272.0,-8516.0,-186.27,-190.44,119.15,118.84
110.63,548.0,14724.0,-8244.0,-179.03,-183.17,119.24,107.35
110.7,312.0,15768.0,-4772.0,-189.79,-192.86,106.84,95.14
110.77,340.0,15888.0,800.0,-174.07,-176.08,87.12,83.3
110.84,332.0,15292.0,4048.0,-173.27,-174.95,75.17,72.03
110.91,344.0,13812.0,7116.0,-177.59,-178.98,62.74,60.2
110.97,368.0,12072.0,9892.0,-178.67,-179.84,50.67,48.3
111.04,428.0,9564.0,11896.0,-179.27,-180.23,38.8,36.37
111.11,324.0,5864.0,13756.0,-164.18,-164.92,23.09,24.95
111.18,520.0,3236.0,14748.0,-168.92,-169.83,12.38,13.31
111.24,388.0,-308.0,15136.0,-167.51,-168.5,-1.17,1.54
111.31,472.0,-4192.0,14352.0,-189.4,-190.62,-16.28,-11.74
111.38,652.0,-7800.0,12888.0,-175.43,-177.05,-31.18,-25.07
111.45,400.0,-10344.0,11552.0,-183.09,-185.25,-41.84,-38.62
111.53,724.0,-13332.0,8600.0,-174.6,-177.05,-57.18,-52.03
111.6,520.0,-15244.0,5672.0,-174.27,-177.17,-69.59,-65.16
111.67,540.0,-16036.0,2104.0,-180.38,-183.67,-82.53,-78.69
111.74,524.0,-15696.0,-1776.0,-178.09,-181.72,-96.46,-92.14
111.81,328.0,-16060.0,-3328.0,-188.13,-192.15,-101.71,-105.5
111.89,384.0,-15080.0,-8624.0,-162.77,-166.45,-119.76,-118.08
111.96,728.0,-12660.0,-11824.0,-169.75,-173.58,-133.04,-131.2
112.03,584.0,-9976.0,-14004.0,-171.51,-175.51,-144.54,-144.43
112.11,332.0,-7032.0,-16228.0,-174.24,-178.24,-156.57,-157.54
112.18,556.0,-3940.0,-17396.0,-177.07,-180.99,-167.24,-170.55
112.26,548.0,52.0,-17500.0,-172.32,-175.94,179.83,176.78
112.33,404.0,4472.0,-17108.0,-187.45,-190.79,165.35,163.83
112.4,468.0,7628.0,-15760.0,-162.72,-165.92,154.17,152.27
112.47,372.0,9980.0,-14248.0,-166.69,-169.72,144.99,140.75
112.54,456.0,12492.0,-11728.0,-174.56,-177.21,133.19,128.73
112.61,268.0,15268.0,-7536.0,-169.56,-171.8,116.27,116.32
112.68,160.0,16208.0,-4436.0,-175.1,-177.34,105.31,103.89
112.75,432.0,16472.0,-764.0,-172.77,-174.89,92.66,91.59
112.82,360.0,15924.0,2700.0,-188.49,-190.51,80.38,78.87
112.89,272.0,14652.0,5452.0,-174.37,-176.25,69.59,67.21
112.96,656.0,12760.0,8588.0,-170.26,-171.94,56.06,55.6
113.03,320.0,10548.0,11144.0,-167.37,-169.0,43.43,44.06
113.09,456.0,7912.0,13092.0,-178.09,-179.78,31.15,31.61
113.16,336.0,4440.0,14428.0,-180.36,-182.09,17.1,19.02
113.23,712.0,244.0,15048.0,-185.41,-187.31,0.93,5.71
113.3,636.0,-2440.0,14664.0,-171.86,-174.18,-9.45,-5.97
113.36,388.0,-5480.0,13932.0,-167.84,-170.46,-21.47,-18.11
113.44,568.0,-9668.0,12164.0,-174.63,-177.54,-38.48,-31.58
113.51,436.0,-10724.0,10848.0,-173.4,-176.93,-44.67,-44.19
113.58,484.0,-13952.0,7492.0,-186.89,-190.46,-61.76,-58.35
113.65,560.0,-15388.0,4192.0,-170.75,-174.61,-74.76,-71.2
113.72,560.0,-16484.0,380.0,-167.47,-171.66,-88.68,-83.98
113.79,696.0,-16088.0,-2432.0,-173.18,-177.78,-98.6,-96.65
113.86,372.0,-15708.0,-6908.0,-176.18,-180.96,-113.74,-110.15
113.94,436.0,-14392.0,-9956.0,-181.98,-187.07,-124.67,-124.11
114.01,552.0,-11936.0,-12744.0,-171.44,-176.58,-136.88,-137.18
114.09,688.0,-7376.0,-15868.0,-186.79,-191.9,-155.07,-152.02
114.16,412.0,-5204.0,-16588.0,-167.63,-173.03,-162.58,-164.61
114.23,584.0,-712.0,-17716.0,-170.24,-175.45,-177.7,-177.64
114.31,732.0,2520.0,-17676.0,-172.03,-177.24,171.89,169.68
114.38,624.0,5360.0,-16680.0,-174.31,-179.33,162.19,157.53
114.45,432.0,9308.0,-14912.0,-180.66,-185.25,148.03,144.78
114.52,372.0,12248.0,-12616.0,-172.84,-177.13,135.85,132.61
114.59,228.0,14992.0,-8956.0,-184.5,-188.5,120.85,119.21
114.66,520.0,14976.0,-7500.0,-177.56,-181.42,116.6,107.49
114.74,644.0,15856.0,-4980.0,-190.95,-193.98,107.44,95.26
114.81,136.0,15856.0,416.0,-173.06,-175.0,88.5,83.63
114.87,504.0,15364.0,4068.0,-171.95,-173.45,75.17,72.4
114.94,344.0,13832.0,7296.0,-178.76,-180.01,62.19,60.41
115.01,488.0,12216.0,9908.0,-180.21,-181.31,50.96,48.43
115.08,52.0,9300.0,11928.0,-180.73,-181.6,37.94,36.31
115.14,272.0,5924.0,13952.0,-165.93,-166.66,23.01,24.95
115.21,524.0,2964.0,14516.0,-170.56,-171.46,11.54,13.11
115.28,228.0,-696.0,15140.0,-168.79,-169.83,-2.63,1.12
115.35,480.0,-4204.0,14388.0,-186.72,-188.08,-16.29,-11.95
115.42,516.0,-7588.0,12764.0,-177.83,-179.58,-30.73,-25.37
115.49,472.0,-10476.0,11364.0,-184.87,-187.08,-42.67,-39.1
115.56,332.0,-13052.0,8468.0,-174.79,-177.31,-57.02,-52.45
115.63,352.0,-15092.0,5296.0,-173.89,-176.83,-70.66,-65.64
115.7,592.0,-15980.0,2084.0,-180.23,-183.61,-82.57,-79.1
115.77,704.0,-16648.0,-1876.0,-176.89,-180.57,-96.43,-92.43
115.85,496.0,-16176.0,-3464.0,-188.41,-192.45,-102.09,-105.83
115.92,460.0,-14748.0,-8728.0,-164.24,-167.94,-120.62,-118.56
115.99,372.0,-12768.0,-11652.0,-168.55,-172.44,-132.38,-131.48
116.07,528.0,-10096.0,-14460.0,-171.5,-175.48,-145.08,-144.74
116.14,252.0,-6980.0,-16028.0,-173.21,-177.22,-156.47,-157.9
116.22,636.0,-3880.0,-17296.0,-176.48,-180.36,-167.36,-170.84
116.29,264.0,500.0,-17440.0,-173.61,-177.17,178.36,176.27
116.36,180.0,4124.0,-17364.0,-186.53,-189.89,166.64,163.39
116.43,684.0,7676.0,-15508.0,-165.62,-168.69,153.67,151.66
116.51,532.0,11088.0,-13296.0,-165.89,-168.78,140.17,139.72
116.58,296.0,13204.0,-11372.0,-172.62,-175.47,130.74,127.48
116.65,316.0,14908.0,-8072.0,-168.9,-171.45,118.43,115.48
116.72,388.0,15848.0,-4740.0,-172.63,-174.91,106.65,103.46
116.79,536.0,16272.0,-440.0,-170.82,-172.81,91.55,91.21
116.86,16.0,15812.0,2768.0,-185.26,-187.23,80.07,78.69
116.93,516.0,14868.0,5920.0,-178.53,-180.37,68.29,66.83
116.99,496.0,12568.0,8772.0,-174.63,-176.34,55.09,54.89
117.06,244.0,10316.0,11164.0,-167.57,-169.27,42.74,43.34
117.13,484.0,7320.0,13048.0,-175.2,-176.95,29.29,30.93
117.2,220.0,4524.0,14496.0,-183.6,-185.49,17.33,18.24
117.27,560.0,-476.0,15252.0,-183.21,-185.18,-1.79,4.84
117.33,288.0,-3188.0,14520.0,-171.92,-174.48,-12.38,-7.41
117.4,320.0,-6344.0,13956.0,-162.93,-165.92,-24.45,-19.61
117.48,328.0,-8556.0,12460.0,-171.84,-175.25,-34.48,-32.32
117.55,420.0,-12000.0,9980.0,-170.85,-174.45,-50.25,-45.33
117.62,344.0,-14744.0,6568.0,-183.56,-187.6,-65.99,-59.46
117.69,504.0,-15568.0,4032.0,-177.15,-181.77,-75.48,-72.72
117.76,700.0,-16604.0,188.0,-183.21,-188.08,-89.35,-86.44
117.83,452.0,-16476.0,-3096.0,-171.96,-177.08,-100.64,-99.02
117.9,648.0,-15492.0,-6960.0,-172.7,-177.97,-114.19,-112.28
117.98,384.0,-13712.0,-10364.0,-176.47,-181.91,-127.08,-125.93
118.05,460.0,-11808.0,-13128.0,-172.28,-177.82,-138.03,-139.18
118.13,460.0,-8128.0,-16156.0,-184.08,-189.52,-153.29,-153.44
118.2,680.0,-4156.0,-17244.0,-177.01,-182.43,-166.45,-166.92
118.28,560.0,-712.0,-17996.0,-176.76,-182.14,-177.73,-180.13
118.35,404.0,2984.0,-17704.0,-170.92,-176.08,170.43,167.38
118.42,396.0,6176.0,-16576.0,-171.65,-176.53,159.57,155.37
118.49,412.0,7392.0,-15908.0,-176.21,-180.71,155.08,143.96
118.56,176.0,11200.0,-12728.0,-172.07,-175.56,138.65,132.3
118.63,568.0,14364.0,-8636.0,-181.73,-184.64,121.02,119.21
118.71,588.0,16060.0,-5480.0,-178.06,-180.81,108.84,106.64
118.78,728.0,16112.0,-2052.0,-184.03,-186.59,97.26,93.82
118.85,84.0,16336.0,1156.0,-172.83,-175.08,85.95,82.23
118.91,484.0,15080.0,4304.0,-173.46,-175.37,74.07,70.92
118.98,-96.0,13096.0,7928.0,-182.25,-183.88,58.81,58.48
119.05,308.0,11268.0,10128.0,-177.27,-178.87,48.05,46.54
119.12,236.0,8336.0,12488.0,-188.9,-190.37,33.72,33.45
119.19,616.0,5324.0,14048.0,-162.79,-164.24,20.76,22.14
119.25,204.0,2832.0,14724.0,-166.51,-168.08,10.89,10.75
119.32,508.0,-868.0,14452.0,-172.11,-173.67,-3.44,-1.3
119.39,292.0,-4376.0,14708.0,-184.5,-186.25,-16.57,-14.21
119.46,240.0,-6936.0,13588.0,-180.24,-182.19,-27.04,-27.13
119.53,500.0,-10104.0,11608.0,-182.42,-184.36,-41.04,-40.32
119.6,492.0,-13544.0,8304.0,-171.47,-173.47,-58.49,-53.45
119.67,452.0,-15008.0,5036.0,-171.24,-173.7,-71.45,-66.41
119.75,468.0,-16176.0,2036.0,-177.72,-180.62,-82.83,-79.64
119.82,532.0,-16224.0,-2068.0,-174.92,-178.1,-97.26,-92.85
119.89,576.0,-15304.0,-5816.0,-186.44,-190.02,-110.81,-107.02
119.96,584.0,-14912.0,-8952.0,-163.55,-167.46,-120.98,-119.63
120.04,408.0,-12864.0,-12124.0,-166.97,-171.01,-133.3,-132.43
120.11,348.0,-9276.0,-14208.0,-170.08,-174.19,-146.86,-145.7
120.19,640.0,-6800.0,-15840.0,-170.63,-174.85,-156.77,-158.47
120.26,524.0,-3068.0,-17600.0,-175.06,-179.13,-170.11,-171.57
120.34,316.0,792.0,-17736.0,-174.82,-178.76,177.44,175.42
120.41,500.0,3716.0,-17024.0,-184.31,-188.06,167.69,162.87
120.48,368.0,9044.0,-15624.0,-177.36,-180.67,149.94,150.02
120.55,260.0,11836.0,-13332.0,-165.15,-168.46,138.4,138.08
120.62,616.0,13316.0,-10876.0,-169.95,-173.24,129.24,125.99
120.69,328.0,14680.0,-8568.0,-166.44,-169.44,120.27,114.51
120.76,496.0,16020.0,-4864.0,-170.37,-172.84,106.89,102.75
120.83,240.0,16480.0,-608.0,-167.84,-169.94,92.11,90.83
120.9,372.0,15604.0,3020.0,-185.47,-187.46,79.05,78.22
120.97,228.0,14644.0,4988.0,-181.83,-183.74,71.19,66.37
121.04,404.0,12600.0,8852.0,-186.38,-187.86,54.91,53.77
121.11,244.0,10592.0,11376.0,-172.34,-173.73,42.96,42.09
121.17,456.0,6984.0,13412.0,-174.04,-175.34,27.51,29.73
121.24,316.0,4708.0,14440.0,-180.93,-182.43,18.06,17.43
121.31,620.0,508.0,15336.0,-179.7,-181.15,1.9,4.77
121.38,380.0,-2460.0,15016.0,-169.15,-170.84,-9.3,-6.58
121.44,252.0,-6264.0,13964.0,-165.6,-167.53,-24.16,-18.78
121.51,364.0,-9380.0,12068.0,-170.2,-172.6,-37.86,-31.79
121.59,260.0,-12272.0,9672.0,-167.73,-170.66,-51.76,-44.77
121.66,572.0,-14220.0,6728.0,-185.21,-188.76,-64.68,-58.9
121.73,464.0,-15424.0,4320.0,-173.19,-177.25,-74.35,-71.8
121.8,336.0,-16396.0,-4.0,-166.72,-171.01,-90.01,-84.63
121.87,424.0,-16136.0,-3336.0,-173.31,-178.08,-101.68,-97.41
121.94,724.0,-15708.0,-7244.0,-174.05,-179.19,-114.76,-111.0
122.02,412.0,-14108.0,-10372.0,-179.38,-184.86,-126.32,-124.9
122.09,548.0,-11484.0,-13520.0,-178.54,-184.15,-139.66,-138.87
122.17,504.0,-7948.0,-16372.0,-184.58,-190.26,-154.11,-153.31
122.24,392.0,-4848.0,-17256.0,-175.75,-181.5,-164.31,-166.5
122.31,664.0,-2396.0,-17844.0,-181.83,-187.38,-172.35,-179.49
122.39,280.0,2316.0,-17444.0,-174.41,-179.31,172.44,167.8
122.46,300.0,6264.0,-16640.0,-171.43,-175.9,159.37,155.76
122.53,464.0,7348.0,-15784.0,-175.4,-179.55,155.04,144.37
122.6,508.0,11600.0,-12244.0,-171.27,-174.45,136.55,132.49
122.67,256.0,14116.0,-9424.0,-181.64,-184.45,123.73,119.7
122.75,-112.0,16020.0,-5240.0,-179.47,-181.92,108.11,106.92
122.82,416.0,16764.0,-1580.0,-183.65,-185.99,95.38,93.72
122.89,176.0,16120.0,1060.0,-170.44,-172.62,86.24,82.32
122.95,260.0,15196.0,4376.0,-170.56,-172.4,73.94,71.0
123.02,284.0,14116.0,7384.0,-176.71,-178.29,62.39,59.3
123.09,408.0,12124.0,10140.0,-174.8,-176.1,50.09,47.65
123.16,0.0,8948.0,12204.0,-190.23,-191.32,36.25,34.67
123.23,244.0,5728.0,14084.0,-166.28,-167.23,22.13,23.53
123.29,496.0,2020.0,14756.0,-167.53,-168.6,7.79,11.62
123.36,480.0,-924.0,14836.0,-179.05,-180.46,-3.56,-0.78
123.43,276.0,-4096.0,14644.0,-182.47,-184.12,-15.63,-13.51
123.5,436.0,-8312.0,12620.0,-176.44,-178.28,-33.37,-26.96
123.57,432.0,-10344.0,11296.0,-182.36,-184.75,-42.48,-40.35
123.64,720.0,-13264.0,8088.0,-170.99,-173.57,-58.63,-53.5
123.71,776.0,-14964.0,5312.0,-170.47,-173.5,-70.46,-66.33
123.78,628.0,-16068.0,2208.0,-176.98,-180.38,-82.18,-79.48
123.85,496.0,-16788.0,-1668.0,-173.5,-177.14,-95.67,-92.47
123.93,352.0,-15192.0,-6128.0,-185.53,-189.46,-111.97,-106.78
124.0,540.0,-15036.0,-8996.0,-170.24,-174.63,-120.89,-119.87
124.08,864.0,-12620.0,-12148.0,-165.33,-169.81,-133.91,-132.64
124.15,604.0,-9388.0,-14616.0,-170.35,-174.95,-147.29,-145.99
124.23,420.0,-6456.0,-16220.0,-170.71,-175.42,-158.3,-158.93
124.3,488.0,-2624.0,-17484.0,-171.95,-176.61,-171.46,-171.98
124.37,524.0,432.0,-18036.0,-178.08,-182.69,178.63,174.94
124.44,520.0,3980.0,-17204.0,-183.8,-188.07,166.97,162.36
124.52,416.0,9588.0,-15240.0,-180.04,-183.89,147.82,149.12
124.59,452.0,11480.0,-13672.0,-182.26,-186.23,139.98,136.35
124.66,204.0,13344.0,-11120.0,-175.08,-178.72,129.81,124.18
124.73,724.0,15100.0,-7608.0,-168.11,-171.25,116.74,112.38
124.8,384.0,15716.0,-4444.0,-168.47,-171.21,105.79,100.84
124.87,500.0,16116.0,-768.0,-165.87,-168.17,92.73,89.32
124.94,320.0,15796.0,2680.0,-157.6,-159.59,80.37,78.71
125.01,516.0,15092.0,5296.0,-125.5,-127.34,70.66,70.14
125.08,488.0,13708.0,7392.0,-110.07,-111.86,61.66,62.45
125.14,376.0,12548.0,8836.0,-92.16,-94.02,54.85,55.93
125.21,332.0,11588.0,9896.0,-69.49,-71.45,49.5,51.05
125.28,372.0,10840.0,10856.0,-52.76,-54.86,44.96,47.17
125.34,372.0,10340.0,11460.0,-36.07,-38.36,42.06,44.33
125.41,376.0,9828.0,11772.0,-18.98,-21.47,39.86,42.57
125.48,336.0,9596.0,11824.0,-8.91,-11.63,39.06,41.5
125.54,344.0,9424.0,12048.0,1.79,-1.15,38.03,41.06
125.6,376.0,9408.0,11988.0,1.62,-1.57,38.12,40.66
125.66,272.0,9596.0,12052.0,1.53,-1.88,38.53,40.32
125.73,412.0,9396.0,11900.0,1.49,-2.07,38.29,39.99
125.79,392.0,9400.0,11836.0,1.71,-2.0,38.46,39.72
125.85,404.0,9552.0,12028.0,1.6,-2.22,38.45,39.46
125.91,384.0,9376.0,12004.0,1.6,-2.3,37.99,39.18
125.98,408.0,9544.0,11856.0,1.69,-2.3,38.83,39.01
126.04,224.0,9540.0,12036.0,1.64,-2.37,38.4,38.82
126.1,464.0,9292.0,11804.0,1.64,-2.41,38.21,38.62
126.16,284.0,9440.0,11844.0,1.57,-2.51,38.56,38.47
126.23,376.0,9344.0,11644.0,1.58,-2.49,38.75,38.36
126.29,472.0,9460.0,11840.0,1.52,-2.52,38.62,38.25
126.35,348.0,9524.0,11888.0,1.56,-2.45,38.7,38.16
126.41,308.0,9460.0,11732.0,1.52,-2.45,38.88,38.1
126.48,464.0,9408.0,12032.0,1.44,-2.46,38.02,37.95
126.54,304.0,9776.0,12200.0,1.56,-2.34,38.71,37.9
126.6,316.0,9660.0,11580.0,1.44,-2.38,39.83,37.97
126.66,372.0,9592.0,11896.0,1.49,-2.18,38.88,37.94
126.73,296.0,9484.0,12036.0,1.49,-2.1,38.24,37.85
126.79,460.0,9424.0,11908.0,1.66,-1.9,38.36,37.8
126.85,480.0,9480.0,11912.0,1.72,-1.79,38.51,37.77
126.91,328.0,9572.0,11784.0,1.58,-1.87,39.09,37.8
126.98,428.0,9484.0,11860.0,1.54,-1.8,38.65,37.79
127.04,384.0,9428.0,11912.0,1.53,-1.74,38.36,37.75
127.1,360.0,9500.0,12108.0,1.63,-1.59,38.12,37.7
127.16,388.0,9476.0,11864.0,1.62,-1.57,38.62,37.71
127.23,364.0,9392.0,11752.0,1.6,-1.51,38.63,37.72
127.29,376.0,9516.0,12080.0,1.7,-1.33,38.23,37.7
127.35,404.0,9432.0,11844.0,1.53,-1.46,38.53,37.7
127.41,544.0,9528.0,12168.0,1.61,-1.31,38.06,37.67
127.48,308.0,9488.0,11972.0,1.56,-1.33,38.4,37.67
127.54,424.0,9396.0,11768.0,1.57,-1.25,38.61,37.7
127.6,436.0,9280.0,11864.0,1.57,-1.18,38.03,37.66
127.66,320.0,9396.0,12116.0,1.55,-1.17,37.79,37.61
127.73,380.0,9388.0,11992.0,1.51,-1.19,38.06,37.59
127.79,400.0,9516.0,11908.0,1.48,-1.18,38.63,37.63
127.85,364.0,9636.0,11944.0,1.6,-0.98,38.9,37.71
127.91,300.0,9492.0,11868.0,1.54,-0.94,38.65,37.75
127.98,420.0,9540.0,11912.0,1.8,-0.6,38.69,37.82
128.04,360.0,9476.0,11896.0,1.53,-0.8,38.54,37.85
128.1,388.0,9452.0,11956.0,1.6,-0.68,38.33,37.86
128.16,384.0,9468.0,11884.0,1.55,-0.69,38.54,37.89
128.23,368.0,9336.0,11920.0,1.65,-0.53,38.07,37.88
128.29,432.0,9372.0,11936.0,1.62,-0.55,38.14,37.88
128.35,264.0,9440.0,11832.0,1.77,-0.37,38.58,37.93
128.41,420.0,9544.0,11908.0,1.56,-0.52,38.71,37.98
128.48,268.0,9588.0,11788.0,1.58,-0.45,39.12,38.07
128.54,328.0,9552.0,12012.0,1.75,-0.19,38.49,38.11
128.6,384.0,9532.0,11996.0,1.58,-0.33,38.47,38.13
128.66,444.0,9424.0,11896.0,1.53,-0.34,38.39,38.13
128.72,400.0,9456.0,12136.0,1.56,-0.29,37.92,38.1
128.79,476.0,9320.0,11656.0,1.66,-0.22,38.65,38.14
128.85,416.0,9412.0,11832.0,1.6,-0.23,38.5,38.17
128.91,472.0,9516.0,11864.0,1.34,-0.46,38.73,38.2
128.97,484.0,9360.0,12100.0,1.45,-0.31,37.72,38.13
129.04,436.0,11272.0,13344.0,1.17,-0.62,40.19,38.31
129.1,232.0,10252.0,11256.0,0.56,-1.07,42.33,38.67
129.16,400.0,9612.0,11828.0,0.83,-0.5,39.1,38.68
129.23,236.0,9088.0,12204.0,1.75,0.45,36.67,38.5
129.29,368.0,9180.0,11776.0,1.76,0.32,37.94,38.46
129.35,312.0,9408.0,11808.0,1.93,0.44,38.55,38.49
129.41,528.0,9504.0,11796.0,1.63,0.15,38.86,38.54
129.47,468.0,9508.0,11724.0,1.44,-0.02,39.04,38.59
129.53,420.0,9424.0,11840.0,1.5,0.07,38.52,38.59
129.6,448.0,9424.0,11912.0,1.53,0.11,38.35,38.57
129.66,316.0,9760.0,12336.0,1.4,-0.05,38.35,38.54
129.72,336.0,9120.0,11628.0,1.76,0.29,38.11,38.51
129.78,640.0,8560.0,11336.0,1.1,-0.4,37.06,38.34
129.84,516.0,10188.0,10680.0,3.2,1.6,43.65,38.98
129.91,524.0,10216.0,11860.0,2.9,1.69,40.74,39.25
129.97,404.0,9948.0,11540.0,1.86,0.77,40.76,39.45
130.03,376.0,8384.0,12060.0,1.63,0.65,34.81,39.01
130.09,320.0,9056.0,12120.0,1.58,0.25,36.77,38.79
130.15,312.0,8976.0,11992.0,1.5,0.01,36.81,38.59
130.21,344.0,9240.0,11684.0,1.69,0.04,38.34,38.57
130.28,500.0,9412.0,11928.0,1.79,0.12,38.28,38.54
130.34,340.0,9412.0,11744.0,1.66,-0.02,38.71,38.56
130.4,460.0,9472.0,11888.0,1.45,-0.22,38.55,38.55
130.46,364.0,9372.0,12048.0,1.62,-0.06,37.88,38.47
130.52,488.0,9504.0,11772.0,1.68,-0.04,38.92,38.52
130.59,240.0,9588.0,12056.0,1.58,-0.11,38.49,38.51
130.65,324.0,9352.0,12024.0,1.44,-0.26,37.87,38.43
130.71,364.0,9320.0,11340.0,1.53,-0.2,39.42,38.52
130.77,320.0,9724.0,11936.0,1.56,-0.11,39.17,38.58
130.84,344.0,9300.0,11764.0,1.45,-0.16,38.33,38.55
130.9,200.0,9468.0,11928.0,1.82,0.19,38.44,38.55
130.96,460.0,9432.0,11904.0,1.85,0.21,38.39,38.54
131.02,532.0,9228.0,8528.0,4.6,2.95,47.26,39.6
131.08,308.0,10656.0,11284.0,1.69,0.68,43.36,40.02
131.14,404.0,8844.0,11608.0,0.98,0.24,37.3,39.76
131.21,252.0,9676.0,12224.0,1.41,0.47,38.36,39.64
131.27,308.0,10228.0,11556.0,1.95,0.9,41.51,39.88
131.33,392.0,10316.0,11388.0,3.03,2.12,42.17,40.24
131.39,460.0,9240.0,11748.0,1.74,0.99,38.19,40.08
131.45,472.0,9532.0,11956.0,1.77,0.86,38.56,39.97
131.52,352.0,9328.0,11984.0,1.77,0.74,37.9,39.8
131.58,380.0,9468.0,12072.0,1.54,0.36,38.11,39.65
131.64,396.0,9404.0,11832.0,1.47,0.15,38.48,39.53
131.7,324.0,9424.0,11992.0,1.69,0.29,38.16,39.41
131.76,412.0,9460.0,11808.0,1.71,0.21,38.7,39.35
131.82,324.0,9404.0,12028.0,1.75,0.19,38.02,39.22
131.88,280.0,9660.0,11968.0,1.75,0.09,38.91,39.19
131.95,368.0,9488.0,12120.0,1.6,-0.09,38.06,39.07
132.01,340.0,9392.0,11928.0,1.76,-0.01,38.22,38.98
132.07,332.0,9244.0,11776.0,1.58,-0.25,38.13,38.88
132.13,328.0,9344.0,11876.0,1.67,-0.22,38.2,38.8
132.19,468.0,9448.0,11884.0,1.56,-0.38,38.49,38.75
132.26,308.0,9452.0,11928.0,1.44,-0.53,38.39,38.68
132.32,344.0,9492.0,11884.0,1.56,-0.42,38.62,38.65
132.38,256.0,9536.0,12132.0,1.66,-0.33,38.17,38.58
132.44,316.0,9516.0,11944.0,1.56,-0.46,38.54,38.55
132.51,384.0,9540.0,12000.0,1.77,-0.25,38.48,38.53
132.57,304.0,9484.0,11784.0,1.53,-0.49,38.83,38.53
132.63,436.0,9428.0,11916.0,1.58,-0.42,38.35,38.49
132.69,404.0,9468.0,12040.0,1.51,-0.5,38.18,38.43
132.76,248.0,9372.0,11832.0,1.62,-0.42,38.38,38.4
132.82,400.0,9392.0,11936.0,1.58,-0.46,38.2,38.36
132.88,296.0,9496.0,11828.0,1.49,-0.56,38.76,38.37
132.94,368.0,9480.0,11884.0,1.63,-0.39,38.58,38.37
133.01,316.0,9416.0,11896.0,1.63,-0.37,38.36,38.35
133.07,328.0,9468.0,11996.0,1.42,-0.58,38.28,38.31
133.13,336.0,9732.0,12688.0,1.41,-0.59,37.49,38.19
133.19,452.0,9740.0,11732.0,1.53,-0.53,39.7,38.32
133.26,376.0,9380.0,11908.0,1.44,-0.51,38.23,38.28
133.32,364.0,9592.0,12112.0,1.63,-0.32,38.38,38.27
133.38,248.0,9524.0,12028.0,1.53,-0.41,38.37,38.26
133.44,420.0,9604.0,11840.0,1.47,-0.46,39.05,38.31
133.51,316.0,9560.0,11968.0,1.71,-0.16,38.62,38.34
133.57,132.0,9408.0,11816.0,1.51,-0.33,38.53,38.34
133.63,364.0,9428.0,11800.0,1.65,-0.18,38.62,38.36
133.69,392.0,9512.0,12056.0,1.7,-0.11,38.27,38.34
133.76,360.0,9376.0,11876.0,1.63,-0.19,38.29,38.33
133.82,300.0,9512.0,12548.0,1.4,-0.42,37.16,38.18
133.88,396.0,9388.0,11404.0,1.5,-0.4,39.46,38.29
133.94,428.0,9432.0,11840.0,1.49,-0.32,38.54,38.3
134.01,344.0,9436.0,11884.0,1.63,-0.16,38.45,38.31
134.07,492.0,9388.0,11944.0,1.5,-0.27,38.17,38.28
134.13,456.0,9500.0,12016.0,1.5,-0.29,38.33,38.27
134.19,332.0,9636.0,11980.0,1.56,-0.22,38.81,38.31
134.26,328.0,9532.0,11980.0,1.6,-0.13,38.51,38.32
134.32,416.0,9560.0,11940.0,1.48,-0.24,38.68,38.35
134.38,260.0,9544.0,11956.0,1.65,-0.04,38.6,38.37
134.44,432.0,9480.0,12016.0,1.56,-0.12,38.27,38.36
134.51,368.0,9364.0,11812.0,1.62,-0.06,38.41,38.36
134.57,400.0,9568.0,11796.0,1.57,-0.1,39.05,38.42
134.63,464.0,9424.0,11804.0,1.6,-0.03,38.6,38.44
134.69,264.0,9372.0,12096.0,1.68,0.07,37.77,38.37
134.75,380.0,9452.0,12144.0,1.55,-0.11,37.89,38.32
134.82,328.0,9524.0,12000.0,1.69,-0.0,38.44,38.33
134.88,328.0,9508.0,11972.0,1.55,-0.14,38.46,38.34
134.94,344.0,9496.0,11732.0,1.68,0.0,38.99,38.4
135.0,308.0,9532.0,12028.0,1.6,-0.02,38.4,38.4
135.07,408.0,9776.0,12112.0,1.55,-0.08,38.91,38.45
135.13,324.0,9504.0,12060.0,1.43,-0.16,38.24,38.42
135.19,436.0,9296.0,12000.0,1.61,0.01,37.76,38.35
135.25,368.0,9544.0,12024.0,1.64,-0.01,38.44,38.36
135.31,408.0,9588.0,12192.0,1.55,-0.1,38.18,38.34
135.38,448.0,9532.0,11936.0,1.6,-0.06,38.61,38.36
135.44,280.0,9552.0,12132.0,1.51,-0.13,38.21,38.34
135.5,324.0,9424.0,11844.0,1.63,-0.02,38.51,38.36
135.56,368.0,9280.0,11808.0,1.45,-0.19,38.16,38.32
135.63,300.0,9444.0,12256.0,1.66,0.01,37.62,38.25
135.69,276.0,9328.0,11912.0,1.55,-0.15,38.06,38.22
135.75,332.0,9424.0,12064.0,1.68,-0.04,38.0,38.2
135.81,352.0,9516.0,11884.0,1.67,-0.06,38.69,38.25
135.88,332.0,9520.0,11948.0,1.24,-0.46,38.55,38.25
135.94,376.0,9524.0,11888.0,0.48,-1.19,38.7,38.23
136.0,324.0,9532.0,12112.0,1.6,-0.04,38.2,38.23
136.06,212.0,9520.0,12052.0,1.46,-0.18,38.31,38.22
136.13,372.0,9508.0,12056.0,2.12,0.49,38.26,38.26
136.19,344.0,9548.0,11972.0,3.05,1.42,38.57,38.37
