Tiempo,AccX,AccY,AccZ,GiroY,KalmanGiroY,Pitch,KalmanPitch,DMPPitch
4.52,368.0,2388.0,14796.0,0.21,-0.01,9.17,8.93,16.55
4.59,396.0,2376.0,14764.0,0.2,-0.0,9.14,8.95,16.51
4.66,274.0,2424.0,14918.0,0.2,0.01,9.23,8.97,16.47
4.73,326.0,2368.0,14912.0,0.19,0.04,9.02,9.0,15.42
4.79,386.0,2256.0,14916.0,0.2,0.05,8.6,8.97,15.39
4.86,328.0,2392.0,14830.0,0.21,0.03,9.16,8.98,15.36
4.93,376.0,2338.0,14816.0,0.2,0.03,8.97,8.99,15.33
4.99,364.0,2294.0,14904.0,0.21,0.04,8.75,8.97,15.3
5.07,288.0,2304.0,14814.0,0.2,0.01,8.84,8.95,14.47
5.13,398.0,2310.0,14776.0,0.2,0.0,8.89,8.94,14.44
5.2,368.0,2354.0,14906.0,0.19,-0.01,8.97,8.94,14.42
5.27,396.0,2302.0,14814.0,0.21,0.01,8.83,8.93,14.39
5.33,348.0,2260.0,14838.0,0.2,-0.01,8.66,8.91,14.37
5.41,362.0,2330.0,14888.0,0.2,-0.0,8.89,8.93,13.72
5.48,398.0,2356.0,14770.0,0.2,-0.01,9.06,8.94,13.69
5.54,330.0,2344.0,14822.0,0.2,0.0,8.99,8.95,13.67
5.61,360.0,2294.0,14788.0,0.19,-0.0,8.82,8.94,13.66
5.68,358.0,2356.0,14838.0,0.21,0.0,9.02,8.94,13.64
5.75,328.0,2334.0,14830.0,0.19,0.01,8.94,8.96,13.13
5.81,344.0,2286.0,15022.0,0.19,0.01,8.65,8.94,13.11
5.88,332.0,2348.0,15094.0,0.19,-0.01,8.84,8.93,13.1
5.95,328.0,2398.0,14858.0,0.2,-0.01,9.17,8.95,13.08
6.01,342.0,2226.0,14872.0,0.2,0.0,8.51,8.91,13.07
6.09,328.0,2286.0,14754.0,0.21,0.0,8.81,8.93,12.66
6.15,356.0,2196.0,14828.0,0.2,-0.01,8.42,8.88,12.65
6.22,334.0,2370.0,14780.0,0.21,-0.03,9.11,8.9,12.64
6.29,298.0,2286.0,14874.0,0.2,-0.03,8.74,8.89,12.63
6.35,348.0,2338.0,14810.0,0.19,-0.05,8.97,8.89,12.62
6.43,350.0,2302.0,14858.0,0.2,-0.02,8.81,8.9,12.31
6.49,322.0,2314.0,14810.0,0.21,-0.02,8.88,8.89,12.29
6.56,348.0,2382.0,14910.0,0.2,-0.03,9.08,8.91,12.28
6.63,364.0,2282.0,14846.0,0.2,-0.02,8.74,8.89,12.28
6.7,326.0,2332.0,14852.0,0.2,-0.03,8.92,8.89,12.27
6.77,298.0,2316.0,14924.0,0.21,-0.01,8.82,8.9,12.01
6.83,366.0,2338.0,14794.0,0.21,-0.01,8.98,8.91,12.01
6.9,316.0,2378.0,14962.0,0.2,-0.01,9.03,8.92,12.0
6.97,294.0,2306.0,14846.0,0.21,0.0,8.83,8.91,11.99
7.03,290.0,2374.0,14844.0,0.21,-0.0,9.09,8.93,11.98
7.1,292.0,2288.0,14948.0,0.21,-0.0,8.7,8.89,11.78
7.17,290.0,2324.0,14926.0,0.19,-0.03,8.85,8.88,11.77
7.24,338.0,2322.0,14724.0,0.21,-0.02,8.96,8.89,11.77
7.31,288.0,2346.0,14890.0,0.2,-0.02,8.95,8.9,11.76
7.37,358.0,2312.0,14796.0,0.21,-0.01,8.88,8.89,11.76
7.44,402.0,2344.0,14782.0,0.2,0.0,9.01,8.93,11.61
7.51,350.0,2316.0,14814.0,0.21,0.02,8.89,8.92,11.6
7.58,360.0,2252.0,14818.0,0.2,0.0,8.64,8.9,11.6
7.64,314.0,2340.0,15038.0,0.2,-0.02,8.84,8.89,11.59
7.71,336.0,2256.0,14764.0,0.19,-0.03,8.69,8.87,11.59
7.78,334.0,2402.0,14996.0,0.21,0.01,9.1,8.93,11.47
7.85,296.0,2322.0,14886.0,0.2,0.01,8.87,8.92,11.47
7.92,352.0,2350.0,14818.0,0.2,0.01,9.01,8.93,11.46
7.98,314.0,2338.0,14732.0,0.21,0.02,9.02,8.94,11.46
8.05,350.0,2348.0,14808.0,0.2,0.02,9.01,8.95,11.46
8.12,382.0,2400.0,14918.0,0.21,0.04,9.14,8.97,11.36
8.19,304.0,2332.0,14996.0,0.21,0.05,8.84,8.96,11.36
8.26,348.0,2314.0,14840.0,0.2,0.03,8.86,8.96,11.36
8.32,288.0,2316.0,14800.0,0.21,0.03,8.89,8.95,11.36
8.39,282.0,2336.0,14830.0,0.19,0.01,8.95,8.96,11.36
8.46,404.0,2330.0,14826.0,0.19,0.0,8.93,8.94,11.29
8.53,334.0,2308.0,14840.0,0.2,0.01,8.84,8.94,11.28
8.6,400.0,2322.0,14832.0,0.19,-0.0,8.9,8.93,11.28
8.66,358.0,2408.0,14862.0,0.2,0.0,9.2,8.96,11.28
8.73,312.0,2380.0,14840.0,0.19,0.01,9.11,8.97,11.28
8.8,410.0,2292.0,14792.0,0.21,0.03,8.81,8.95,11.23
8.87,332.0,2300.0,14910.0,0.21,0.02,8.77,8.94,11.22
8.94,368.0,2398.0,14906.0,0.2,0.01,9.14,8.96,11.22
9.0,392.0,2376.0,14868.0,0.21,0.02,9.08,8.97,11.22
9.07,308.0,2376.0,15026.0,0.2,0.02,8.99,8.97,11.22
9.14,372.0,2326.0,14848.0,0.2,-0.01,8.9,8.93,11.17
9.21,346.0,2292.0,14852.0,0.21,0.0,8.77,8.92,11.17
9.28,382.0,2364.0,14886.0,0.19,-0.02,9.02,8.93,11.16
9.34,406.0,2338.0,14750.0,0.21,-0.0,9.01,8.93,11.17
9.41,334.0,2286.0,14862.0,0.21,0.0,8.74,8.92,11.16
9.48,376.0,2306.0,14634.0,0.19,-0.05,8.95,8.89,11.13
9.55,346.0,2342.0,14732.0,0.21,-0.03,9.03,8.9,11.13
9.62,268.0,2328.0,14758.0,0.19,-0.04,8.96,8.9,11.13
9.68,384.0,2358.0,14732.0,0.2,-0.02,9.09,8.92,11.12
9.75,280.0,2340.0,14890.0,0.21,0.0,8.93,8.92,11.13
9.82,342.0,2342.0,14748.0,0.2,0.0,9.02,8.94,11.1
9.89,350.0,2372.0,14816.0,0.2,0.01,9.1,8.95,11.1
9.95,266.0,2386.0,14856.0,0.2,0.02,9.12,8.97,11.1
10.02,396.0,2360.0,14744.0,0.2,0.03,9.09,8.98,11.1
10.09,316.0,2340.0,14740.0,0.21,0.04,9.02,8.99,11.1
10.16,362.0,2342.0,14808.0,0.2,0.04,8.99,8.99,11.08
10.23,396.0,2326.0,14714.0,0.21,0.05,8.98,8.99,11.08
10.3,334.0,2276.0,14868.0,0.2,0.04,8.7,8.97,11.08
10.36,368.0,2292.0,14796.0,0.19,0.01,8.81,8.96,11.08
10.43,352.0,2350.0,14946.0,0.21,0.02,8.94,8.96,11.08
10.5,314.0,2356.0,14874.0,0.2,0.0,9.0,8.95,11.07
10.57,386.0,2262.0,14722.0,0.2,0.0,8.74,8.93,11.07
10.64,296.0,2324.0,14936.0,0.2,-0.01,8.84,8.93,11.06
10.7,386.0,2364.0,14750.0,0.19,-0.02,9.11,8.94,11.06
10.77,366.0,2266.0,14746.0,0.2,-0.0,8.74,8.92,11.06
10.85,266.0,2286.0,15046.0,0.2,0.01,8.64,8.93,11.04
10.92,426.0,2346.0,14774.0,0.2,-0.01,9.02,8.94,11.04
10.99,282.0,2356.0,14956.0,0.21,0.01,8.95,8.94,11.04
11.05,338.0,2320.0,14932.0,0.18,-0.02,8.83,8.93,11.04
11.12,400.0,2288.0,14700.0,0.21,-0.0,8.85,8.92,11.04
11.2,258.0,2380.0,14900.0,0.2,-0.04,9.08,8.9,11.03
11.27,402.0,2292.0,14698.0,0.19,-0.04,8.86,8.89,11.03
11.34,276.0,2332.0,14906.0,0.21,-0.03,8.89,8.89,11.03
11.4,350.0,2344.0,14880.0,0.2,-0.04,8.95,8.89,11.03
11.47,390.0,2272.0,14796.0,0.21,-0.02,8.73,8.88,11.03
11.55,238.0,2374.0,14964.0,0.21,0.0,9.01,8.92,11.02
11.62,380.0,2330.0,14902.0,0.21,0.0,8.89,8.92,11.02
11.68,378.0,2338.0,14946.0,0.21,-0.0,8.89,8.92,11.02
11.75,318.0,2282.0,14928.0,0.19,-0.02,8.69,8.9,11.02
11.82,426.0,2300.0,14756.0,0.2,-0.02,8.86,8.89,11.02
11.9,296.0,2372.0,14934.0,0.21,-0.02,9.03,8.9,11.0
11.97,372.0,2344.0,14822.0,0.2,-0.02,8.99,8.91,11.0
12.04,390.0,2308.0,14850.0,0.2,-0.01,8.83,8.9,11.0
12.1,310.0,2418.0,14876.0,0.2,-0.02,9.23,8.93,11.01
12.17,430.0,2286.0,14788.0,0.19,-0.0,8.79,8.91,11.01
12.25,300.0,2280.0,14852.0,0.21,-0.0,8.73,8.9,11.0
12.32,354.0,2410.0,14754.0,0.21,-0.01,9.28,8.92,11.0
12.38,392.0,2234.0,14790.0,0.2,0.0,8.59,8.9,11.0
12.45,340.0,2364.0,14822.0,0.21,-0.01,9.06,8.91,11.0
12.52,354.0,2380.0,14568.0,0.21,0.0,9.28,8.94,11.0
12.6,434.0,2330.0,14928.0,0.21,0.02,8.87,8.93,11.0
12.66,272.0,2448.0,15002.0,0.2,0.01,9.27,8.95,11.0
12.73,392.0,2298.0,14862.0,0.2,0.02,8.79,8.94,11.0
12.8,306.0,2364.0,14804.0,0.21,0.02,9.07,8.95,11.0
12.87,344.0,2300.0,14726.0,0.19,0.02,8.88,8.95,11.0
12.94,358.0,2318.0,14694.0,0.21,0.02,8.96,8.94,11.0
13.0,364.0,2356.0,14832.0,0.21,0.02,9.03,8.95,11.0
13.07,388.0,2286.0,14920.0,0.21,0.02,8.71,8.93,11.0
13.14,300.0,2412.0,14892.0,0.2,-0.0,9.2,8.95,11.0
13.21,324.0,2316.0,14896.0,0.19,0.01,8.84,8.94,11.0
13.28,334.0,2360.0,14866.0,0.2,-0.02,9.02,8.91,10.99
13.35,366.0,2302.0,14822.0,0.2,-0.01,8.83,8.9,10.98
13.41,370.0,2360.0,14854.0,0.21,-0.01,9.03,8.92,10.98
13.48,392.0,2384.0,14998.0,0.2,-0.01,9.03,8.93,10.99
13.55,364.0,2268.0,14866.0,0.19,-0.01,8.67,8.9,10.98
13.63,346.0,2352.0,14738.0,0.2,-0.02,9.07,8.91,10.98
13.7,350.0,2322.0,14782.0,0.2,-0.01,8.93,8.91,10.99
13.76,316.0,2280.0,14844.0,0.2,-0.01,8.73,8.89,10.99
13.83,338.0,2252.0,14880.0,0.19,-0.03,8.61,8.87,10.98
13.9,310.0,2358.0,14784.0,0.2,-0.04,9.06,8.88,10.99
13.98,344.0,2312.0,14732.0,0.21,-0.01,8.92,8.9,10.99
14.04,320.0,2380.0,14788.0,0.2,-0.02,9.14,8.91,10.99
14.11,324.0,2258.0,14810.0,0.19,-0.01,8.67,8.89,10.99
14.18,332.0,2374.0,14710.0,0.21,-0.01,9.17,8.92,10.99
14.25,354.0,2330.0,14874.0,0.21,0.01,8.9,8.92,10.99
14.33,384.0,2354.0,14906.0,0.19,0.05,8.97,8.99,10.91
14.39,346.0,2324.0,14854.0,0.21,0.07,8.89,8.99,10.9
14.46,344.0,2348.0,14808.0,0.2,0.05,9.01,8.99,10.88
14.53,334.0,2402.0,14856.0,0.21,0.06,9.18,9.01,10.87
14.6,336.0,2320.0,14926.0,0.21,0.07,8.83,9.0,10.86
14.67,382.0,2336.0,14854.0,0.21,0.06,8.94,9.0,10.46
14.73,356.0,2250.0,14902.0,0.19,0.04,8.59,8.97,10.44
14.8,376.0,2344.0,14760.0,0.19,0.01,9.02,8.97,10.44
14.87,368.0,2306.0,14776.0,0.2,0.02,8.87,8.96,10.42
14.94,352.0,2284.0,14778.0,0.2,0.02,8.79,8.95,10.41
15.01,388.0,2304.0,14796.0,0.21,-0.0,8.85,8.93,10.1
15.07,392.0,2380.0,14790.0,0.21,-0.01,9.14,8.94,10.09
15.14,370.0,2412.0,14752.0,0.2,0.0,9.29,8.98,10.09
15.21,376.0,2364.0,14796.0,0.19,0.02,9.08,8.99,10.07
15.28,314.0,2322.0,14654.0,0.21,0.04,9.0,8.99,10.06
15.35,350.0,2306.0,14834.0,0.21,0.01,8.84,8.95,9.81
15.42,342.0,2408.0,14924.0,0.2,-0.0,9.17,8.96,9.81
15.49,316.0,2320.0,14992.0,0.2,0.01,8.8,8.95,9.8
15.55,376.0,2322.0,14890.0,0.2,-0.0,8.86,8.94,9.79
15.62,380.0,2340.0,14758.0,0.2,-0.01,9.01,8.95,9.79
15.69,352.0,2326.0,14754.0,0.2,-0.02,8.96,8.93,9.61
15.76,410.0,2366.0,14802.0,0.2,-0.01,9.08,8.94,9.6
15.83,362.0,2342.0,14884.0,0.2,-0.01,8.94,8.94,9.6
15.9,374.0,2298.0,14964.0,0.2,-0.01,8.73,8.92,9.59
15.96,382.0,2378.0,14724.0,0.2,-0.02,9.17,8.94,9.58
16.03,382.0,2332.0,14774.0,0.21,0.0,8.97,8.94,9.45
16.1,354.0,2328.0,14754.0,0.21,0.0,8.97,8.95,9.44
16.17,320.0,2314.0,14908.0,0.2,-0.0,8.82,8.93,9.44
16.23,316.0,2326.0,14860.0,0.2,-0.01,8.9,8.93,9.43
16.3,350.0,2338.0,14788.0,0.21,-0.0,8.98,8.93,9.43
16.37,350.0,2330.0,14846.0,0.19,-0.03,8.92,8.91,9.32
16.44,380.0,2362.0,14802.0,0.2,-0.03,9.07,8.92,9.31
16.51,390.0,2288.0,14880.0,0.2,-0.02,8.74,8.91,9.31
16.58,314.0,2292.0,14914.0,0.2,-0.03,8.74,8.89,9.3
16.64,342.0,2350.0,14818.0,0.18,-0.05,9.01,8.9,9.3
16.71,328.0,2284.0,14768.0,0.19,-0.06,8.79,8.86,9.2
16.78,350.0,2288.0,14834.0,0.2,-0.05,8.77,8.85,9.2
16.85,322.0,2324.0,14836.0,0.2,-0.06,8.9,8.85,9.2
16.91,356.0,2316.0,14860.0,0.2,-0.06,8.86,8.85,9.2
16.98,318.0,2370.0,14878.0,0.2,-0.06,9.05,8.87,9.19
17.05,360.0,2342.0,14892.0,0.2,-0.04,8.94,8.87,9.12
17.12,336.0,2360.0,14750.0,0.2,-0.04,9.09,8.89,9.12
17.19,298.0,2340.0,14852.0,0.2,-0.02,8.95,8.89,9.11
17.25,346.0,2360.0,14848.0,0.2,-0.02,9.03,8.91,9.11
17.32,350.0,2360.0,14892.0,0.21,0.0,9.01,8.92,9.11
17.39,346.0,2332.0,14836.0,0.2,-0.01,8.93,8.9,9.06
17.46,334.0,2388.0,14858.0,0.2,-0.01,9.13,8.92,9.05
17.53,346.0,2316.0,14924.0,0.19,-0.0,8.82,8.91,9.05
17.59,356.0,2308.0,14888.0,0.2,0.0,8.81,8.9,9.05
17.66,358.0,2314.0,14844.0,0.19,-0.01,8.86,8.9,9.05
17.73,332.0,2308.0,14856.0,0.2,-0.02,8.83,8.88,9.01
17.8,338.0,2368.0,14878.0,0.2,-0.02,9.04,8.9,9.01
17.87,364.0,2340.0,14848.0,0.2,-0.01,8.96,8.9,9.01
17.93,294.0,2338.0,14854.0,0.2,-0.01,8.94,8.9,9.01
18.0,308.0,2310.0,14836.0,0.19,-0.01,8.85,8.9,9.01
18.07,330.0,2374.0,14894.0,0.2,0.0,9.06,8.92,8.97
18.14,304.0,2338.0,14828.0,0.2,0.01,8.96,8.92,8.97
18.21,342.0,2312.0,14838.0,0.2,0.01,8.86,8.92,8.97
18.27,392.0,2292.0,14870.0,0.2,0.01,8.76,8.9,8.97
18.34,314.0,2338.0,14844.0,0.21,0.0,8.95,8.91,8.97
18.41,316.0,2266.0,14784.0,0.2,0.04,8.71,8.94,8.94
18.48,326.0,2376.0,14848.0,0.2,0.02,9.09,8.96,8.94
18.54,338.0,2370.0,14826.0,0.19,0.03,9.08,8.97,8.94
18.61,366.0,2300.0,14910.0,0.19,0.03,8.77,8.95,8.94
18.68,336.0,2308.0,14812.0,0.2,0.03,8.86,8.95,8.94
18.75,360.0,2314.0,14824.0,0.19,0.0,8.87,8.93,8.91
18.82,350.0,2336.0,14838.0,0.21,0.02,8.95,8.93,8.91
18.88,330.0,2312.0,14760.0,0.21,0.02,8.9,8.93,8.91
18.95,378.0,2294.0,14804.0,0.21,0.01,8.81,8.92,8.91
19.02,358.0,2304.0,14812.0,0.21,0.01,8.84,8.91,8.91
19.09,344.0,2306.0,14794.0,0.2,0.03,8.86,8.95,8.89
19.16,352.0,2330.0,14780.0,0.2,0.02,8.96,8.95,8.89
19.22,380.0,2332.0,14884.0,0.2,0.02,8.9,8.95,8.89
19.29,376.0,2334.0,14936.0,0.2,0.02,8.88,8.94,8.89
19.36,346.0,2324.0,14930.0,0.2,0.01,8.85,8.94,8.89
19.43,350.0,2276.0,14850.0,0.2,-0.02,8.71,8.89,8.87
19.5,322.0,2356.0,14800.0,0.21,-0.02,9.04,8.9,8.87
19.56,326.0,2382.0,14802.0,0.2,-0.02,9.14,8.92,8.87
19.63,352.0,2318.0,14848.0,0.2,-0.0,8.87,8.92,8.87
19.7,330.0,2360.0,14810.0,0.21,0.0,9.05,8.93,8.87
19.77,348.0,2346.0,14878.0,0.19,-0.01,8.96,8.92,8.86
19.84,394.0,2300.0,14752.0,0.19,-0.01,8.86,8.92,8.86
19.91,414.0,2428.0,14778.0,0.21,0.01,9.33,8.95,8.86
19.97,336.0,2340.0,14784.0,0.19,0.01,8.99,8.96,8.86
20.04,394.0,2354.0,14902.0,0.21,0.03,8.98,8.96,8.86
20.11,300.0,2370.0,14770.0,0.2,0.04,9.12,8.99,8.85
20.18,382.0,2374.0,14784.0,0.2,0.05,9.12,9.0,8.86
20.24,350.0,2358.0,14760.0,0.2,0.05,9.08,9.01,8.86
20.31,290.0,2370.0,14938.0,0.2,0.06,9.02,9.02,8.86
20.37,282.0,2330.0,14810.0,0.21,0.07,8.94,9.01,8.86
20.45,348.0,2358.0,14860.0,0.2,0.08,9.02,9.05,8.85
20.52,304.0,2304.0,14914.0,0.2,0.08,8.78,9.03,8.85
20.58,322.0,2354.0,14828.0,0.21,0.07,9.02,9.03,8.85
20.65,300.0,2292.0,14974.0,0.21,0.07,8.7,9.01,8.85
20.72,336.0,2294.0,14968.0,0.2,0.04,8.71,8.99,8.85
20.79,352.0,2282.0,14682.0,0.19,0.01,8.83,8.98,8.85
20.85,332.0,2302.0,14758.0,0.19,0.0,8.87,8.97,8.85
20.92,338.0,2264.0,14778.0,0.2,0.0,8.71,8.95,8.85
20.99,292.0,2324.0,14826.0,0.21,-0.01,8.91,8.95,8.85
21.05,404.0,2342.0,14808.0,0.2,-0.02,8.99,8.95,8.85
21.13,366.0,2324.0,14794.0,0.21,0.01,8.93,8.96,8.85
21.19,356.0,2308.0,14820.0,0.19,-0.01,8.85,8.95,8.85
21.26,348.0,2340.0,14756.0,0.21,-0.0,9.01,8.96,8.85
21.33,308.0,2376.0,14858.0,0.2,-0.0,9.09,8.97,8.85
21.4,346.0,2300.0,14882.0,0.2,0.0,8.79,8.95,8.85
21.47,314.0,2332.0,15004.0,0.21,0.0,8.83,8.95,8.84
21.53,324.0,2302.0,15160.0,0.2,-0.01,8.63,8.92,8.84
21.6,290.0,2328.0,14730.0,0.2,-0.03,8.98,8.92,8.84
21.67,358.0,2268.0,14596.0,0.19,-0.04,8.83,8.91,8.84
21.74,330.0,2252.0,14712.0,0.2,-0.03,8.7,8.89,8.84
21.81,334.0,2264.0,14854.0,0.2,-0.04,8.67,8.88,8.83
21.87,352.0,2334.0,14980.0,0.2,-0.06,8.86,8.87,8.83
21.94,348.0,2358.0,14794.0,0.2,-0.06,9.06,8.89,8.83
22.01,322.0,2302.0,14632.0,0.19,-0.05,8.94,8.89,8.83
22.08,356.0,2330.0,14642.0,0.2,-0.04,9.04,8.9,8.83
22.15,330.0,2364.0,14994.0,0.2,-0.02,8.96,8.91,8.83
22.21,336.0,2324.0,15026.0,0.2,-0.02,8.79,8.9,8.83
22.28,328.0,2414.0,14844.0,0.21,-0.02,9.24,8.93,8.84
22.35,392.0,2278.0,14776.0,0.2,-0.0,8.76,8.91,8.84
22.42,398.0,2312.0,14702.0,0.2,-0.02,8.94,8.91,8.84
22.49,340.0,2276.0,14808.0,0.2,-0.01,8.74,8.9,8.85
22.55,346.0,2296.0,14778.0,0.2,-0.03,8.83,8.89,8.85
22.62,328.0,2320.0,14876.0,0.2,-0.03,8.86,8.89,8.85
22.69,300.0,2320.0,14872.0,0.19,-0.04,8.87,8.88,8.85
22.76,314.0,2346.0,14866.0,0.19,-0.04,8.97,8.89,8.85
22.83,360.0,2308.0,14824.0,0.21,-0.01,8.85,8.9,8.86
22.89,294.0,2236.0,14874.0,0.2,-0.02,8.55,8.86,8.86
22.96,354.0,2410.0,14730.0,0.2,-0.04,9.29,8.9,8.86
23.03,356.0,2296.0,14878.0,0.21,-0.0,8.77,8.89,8.86
23.1,370.0,2342.0,14848.0,0.21,-0.01,8.96,8.9,8.86
23.17,348.0,2328.0,14844.0,0.19,-0.01,8.91,8.91,8.87
23.23,394.0,2314.0,14782.0,0.21,0.0,8.9,8.91,8.87
23.3,372.0,2302.0,14826.0,0.2,-0.01,8.83,8.9,8.87
23.37,356.0,2328.0,14874.0,0.2,-0.01,8.9,8.9,8.87
23.43,336.0,2290.0,14916.0,0.2,-0.01,8.73,8.88,8.88
23.51,348.0,2288.0,14922.0,0.21,-0.0,8.72,8.88,8.89
23.57,316.0,2322.0,14812.0,0.2,-0.02,8.91,8.88,8.88
23.64,348.0,2346.0,14794.0,0.2,-0.02,9.01,8.89,8.89
23.71,322.0,2340.0,14888.0,0.19,-0.02,8.93,8.9,8.88
23.78,278.0,2328.0,14812.0,0.2,-0.01,8.93,8.9,8.89
23.85,374.0,2300.0,14818.0,0.2,0.0,8.82,8.91,8.89
23.91,372.0,2340.0,14770.0,0.2,-0.0,9.0,8.91,8.89
23.98,322.0,2374.0,14800.0,0.2,0.0,9.11,8.93,8.89
24.05,364.0,2326.0,14732.0,0.21,0.03,8.97,8.94,8.89
24.11,354.0,2270.0,14772.0,0.2,0.02,8.74,8.92,8.89
24.18,346.0,2384.0,14634.0,0.2,0.06,9.25,9.02,8.9
24.25,374.0,2366.0,14704.0,0.2,0.08,9.14,9.03,8.9
24.32,340.0,2320.0,14738.0,0.21,0.1,8.95,9.03,8.9
24.38,354.0,2316.0,14926.0,0.2,0.08,8.82,9.02,8.9
24.45,368.0,2304.0,14858.0,0.21,0.07,8.81,9.0,8.9
24.52,344.0,2324.0,14800.0,0.2,0.05,8.92,9.0,8.9
24.59,386.0,2304.0,14888.0,0.21,0.05,8.8,8.99,8.9
24.66,362.0,2286.0,14812.0,0.2,0.04,8.77,8.97,8.9
24.72,408.0,2318.0,14824.0,0.2,0.02,8.89,8.97,8.9
24.79,374.0,2318.0,14954.0,0.21,0.02,8.81,8.96,8.9
24.86,344.0,2330.0,14938.0,0.19,-0.01,8.87,8.94,8.9
24.93,350.0,2282.0,14848.0,0.19,-0.02,8.74,8.92,8.9
25.0,356.0,2300.0,14684.0,0.19,-0.03,8.9,8.92,8.9
25.07,356.0,2312.0,14730.0,0.19,-0.03,8.92,8.92,8.9
25.13,338.0,2336.0,14766.0,0.2,-0.02,8.99,8.92,8.9
25.2,324.0,2338.0,14858.0,0.19,-0.02,8.94,8.93,8.9
25.27,338.0,2288.0,14862.0,0.2,-0.01,8.75,8.92,8.9
25.34,352.0,2386.0,14900.0,0.21,-0.01,9.1,8.93,8.9
25.41,390.0,2372.0,14918.0,0.2,-0.01,9.03,8.94,8.9
25.47,360.0,2326.0,14930.0,0.21,0.01,8.86,8.93,8.9
25.54,324.0,2336.0,14818.0,0.2,0.0,8.96,8.94,8.9
25.61,348.0,2298.0,14858.0,0.2,0.0,8.79,8.93,8.9
25.67,274.0,2358.0,14832.0,0.2,-0.01,9.03,8.94,8.9
25.74,372.0,2308.0,14860.0,0.2,-0.0,8.83,8.93,8.9
25.81,356.0,2318.0,15084.0,0.2,-0.01,8.74,8.91,8.9
25.88,338.0,2328.0,14894.0,0.19,-0.03,8.88,8.9,8.9
25.95,318.0,2238.0,14726.0,0.19,-0.03,8.64,8.88,8.9
26.02,346.0,2336.0,14556.0,0.19,-0.05,9.12,8.9,8.91
26.08,346.0,2296.0,14704.0,0.2,-0.03,8.87,8.89,8.91
26.15,420.0,2286.0,14818.0,0.21,-0.02,8.77,8.88,8.9
26.22,376.0,2340.0,14842.0,0.21,-0.02,8.96,8.9,8.91
26.29,326.0,2292.0,14938.0,-1.13,-1.35,8.72,8.8,8.91
26.36,358.0,1474.0,14862.0,-4.29,-4.52,5.66,8.23,8.91
26.43,390.0,378.0,14896.0,-7.04,-7.46,1.45,7.12,8.9
26.49,330.0,102.0,15004.0,-10.49,-11.36,0.39,5.77,8.87
26.57,360.0,-2258.0,14896.0,-13.08,-17.9,-8.62,-0.65,-8.28
26.65,358.0,-4924.0,14244.0,-15.11,-20.4,-19.07,-3.48,-9.35
26.72,546.0,-8494.0,12460.0,-18.46,-24.73,-34.28,-7.72,-10.5
26.8,412.0,-10610.0,11622.0,-21.41,-29.48,-42.39,-12.79,-11.7
26.88,544.0,-13364.0,7662.0,-20.75,-34.01,-60.17,-22.78,-54.42
26.96,538.0,-15594.0,4998.0,-21.22,-37.09,-72.23,-29.8,-56.21
27.04,666.0,-16260.0,1002.0,-20.67,-39.68,-86.47,-37.89,-58.06
27.12,574.0,-16338.0,-2468.0,-21.39,-44.18,-98.59,-46.89,-59.9
27.2,602.0,-15344.0,-7310.0,-21.02,-60.12,-115.47,-71.02,-68.23
27.28,590.0,-13306.0,-10626.0,-21.21,-63.15,-128.61,-80.47,-66.53
27.36,530.0,-10660.0,-13664.0,-21.89,-67.15,-142.04,-90.91,-64.82
27.44,492.0,-6786.0,-16144.0,-21.64,-70.66,-157.2,-102.32,-63.07
27.53,518.0,-3572.0,-17404.0,-21.5,-82.85,-168.4,-123.54,-10.1
27.61,508.0,406.0,-17880.0,-21.25,-85.63,178.7,225.04,-8.41
27.69,418.0,4128.0,-17084.0,-22.6,-90.35,166.42,213.41,-6.71
27.77,524.0,8106.0,-15478.0,-22.73,-94.07,152.36,201.01,-4.95
27.85,416.0,11274.0,-13082.0,-21.4,-106.55,139.25,176.43,45.63
27.93,328.0,14862.0,-8918.0,-22.82,-110.31,120.97,163.82,47.32
28.01,370.0,15774.0,-6136.0,-21.86,-112.26,111.26,151.22,49.06
28.09,266.0,16384.0,-1702.0,-22.76,-116.06,95.93,137.9,50.81
28.17,434.0,15956.0,1728.0,-23.54,-128.01,83.82,114.87,78.8
28.25,494.0,14596.0,5750.0,-21.76,-128.14,68.5,102.19,76.95
28.32,314.0,12596.0,8860.0,-21.66,-130.27,54.88,89.11,75.14
28.4,382.0,9718.0,11814.0,-21.92,-132.96,39.44,75.6,73.39
28.48,424.0,5790.0,13664.0,-20.45,-141.13,22.96,53.04,24.7
28.55,370.0,2502.0,14794.0,-21.02,-143.51,9.6,39.72,23.0
28.63,424.0,-748.0,15030.0,-20.64,-145.11,-2.85,26.37,21.26
28.7,434.0,-4380.0,14388.0,-22.54,-149.05,-16.93,12.4,19.49
28.79,492.0,-9320.0,12232.0,-22.11,-158.07,-37.31,-12.0,-30.3
28.87,520.0,-12236.0,9654.0,-21.05,-158.43,-51.73,-26.55,-32.08
28.95,548.0,-14402.0,6512.0,-23.07,-162.02,-65.67,-41.45,-33.8
29.03,608.0,-15966.0,3138.0,-21.9,-162.49,-78.88,-56.4,-35.51
29.11,648.0,-16566.0,-1408.0,-22.37,-166.42,-94.86,-74.11,-86.76
29.19,512.0,-16238.0,-3874.0,-23.14,-168.64,-103.42,-89.03,-87.67
29.27,584.0,-14754.0,-8600.0,-21.53,-168.12,-120.24,-104.34,-87.38
29.35,466.0,-12020.0,-12234.0,-22.24,-170.08,-135.51,-120.04,-86.2
29.44,686.0,-9614.0,-15084.0,-22.05,-172.37,-147.49,-137.31,-33.41
29.52,572.0,-5630.0,-16842.0,-21.44,-172.55,-161.52,-152.5,-31.57
29.6,504.0,-1410.0,-17680.0,-22.95,-174.8,-175.44,-167.77,-29.7
29.69,510.0,2530.0,-17668.0,-21.67,-174.17,171.85,177.25,-27.88
29.77,460.0,6860.0,-16216.0,-20.79,-174.3,157.07,161.81,24.81
29.85,448.0,9836.0,-14404.0,-20.76,-174.64,145.67,147.91,26.52
29.92,402.0,12996.0,-11362.0,-21.85,-175.92,131.16,133.85,28.27
30.0,420.0,14588.0,-8324.0,-21.02,-175.32,119.71,119.93,30.09
30.09,362.0,16320.0,-3596.0,-20.82,-175.32,102.43,104.53,80.46
30.17,376.0,16310.0,-6.0,-21.82,-176.45,90.02,90.67,82.13
30.24,364.0,15590.0,3806.0,-21.71,-176.39,76.28,77.69,83.91
30.31,400.0,13674.0,7458.0,-22.42,-177.2,61.39,64.12,85.71
30.4,376.0,10998.0,10650.0,-21.36,-176.88,45.92,48.67,45.2
30.47,322.0,8098.0,12854.0,-22.82,-178.51,32.21,34.86,43.51
30.55,354.0,4760.0,14184.0,-21.95,-177.82,18.55,21.29,41.79
30.62,438.0,178.0,15068.0,-23.13,-179.18,0.68,7.22,40.05
30.7,416.0,-2668.0,14698.0,-21.4,-178.3,-10.29,-6.79,-7.7
30.77,362.0,-6214.0,13908.0,-21.66,-178.82,-24.07,-20.87,-9.54
30.85,478.0,-10432.0,11360.0,-20.51,-177.9,-42.56,-35.48,-11.43
30.93,484.0,-12836.0,9014.0,-21.91,-179.85,-54.92,-50.4,-13.29
31.02,514.0,-14884.0,5424.0,-21.04,-180.0,-69.98,-66.66,-65.17
31.1,558.0,-16236.0,1452.0,-21.28,-180.48,-84.89,-81.29,-66.87
31.17,626.0,-16626.0,-2560.0,-21.18,-180.64,-98.75,-95.89,-68.58
31.25,570.0,-15370.0,-6440.0,-21.96,-181.65,-112.73,-110.68,-70.33
31.35,608.0,-13328.0,-10686.0,-21.56,-181.57,-128.72,-127.65,-55.37
31.43,520.0,-10896.0,-13660.0,-22.19,-182.27,-141.42,-142.75,-53.62
31.51,542.0,-6682.0,-16194.0,-21.83,-181.83,-157.58,-157.9,-51.92
31.6,530.0,-3748.0,-17446.0,-21.7,-181.67,-167.88,-172.41,-50.17
31.69,432.0,832.0,-17702.0,-21.71,-180.23,177.31,173.21,4.87
31.76,452.0,5322.0,-16962.0,-22.14,-180.4,162.58,159.75,6.62
31.84,408.0,8828.0,-15180.0,-22.73,-180.81,149.82,146.15,8.35
31.92,458.0,11184.0,-13290.0,-21.66,-179.48,139.92,133.0,10.09
32.0,372.0,13982.0,-9612.0,-22.31,-178.54,124.51,118.88,60.97
32.08,404.0,15664.0,-5960.0,-22.77,-178.68,110.83,105.35,62.7
32.16,438.0,16134.0,-1998.0,-22.27,-177.84,97.06,91.9,64.39
32.24,430.0,15818.0,2210.0,-23.47,-178.68,82.05,78.64,66.05
32.31,244.0,14524.0,5992.0,-21.73,-176.54,67.58,65.34,65.1
32.39,308.0,13048.0,8498.0,-22.65,-177.3,56.92,52.48,63.35
32.46,302.0,9700.0,11968.0,-21.44,-175.77,39.02,39.28,61.54
32.54,418.0,6188.0,13610.0,-20.69,-175.03,24.45,26.0,59.74
32.62,382.0,2210.0,14810.0,-20.79,-175.8,8.49,10.32,10.47
32.7,392.0,-1398.0,14680.0,-20.91,-176.03,-5.44,-2.9,8.78
32.77,456.0,-5166.0,14308.0,-21.82,-177.1,-19.85,-16.45,6.93
32.85,514.0,-9316.0,12194.0,-22.43,-177.95,-37.38,-30.77,5.05
32.93,512.0,-12316.0,9598.0,-21.26,-177.45,-52.07,-46.39,-44.97
33.01,500.0,-14338.0,6730.0,-22.69,-179.22,-64.86,-60.9,-46.73
33.09,580.0,-15846.0,3272.0,-22.35,-179.14,-78.33,-75.35,-48.49
33.17,624.0,-16694.0,-1478.0,-22.22,-179.22,-95.06,-90.02,-50.27
33.25,432.0,-15778.0,-4874.0,-23.11,-180.36,-107.17,-105.01,-77.08
33.34,482.0,-14786.0,-8840.0,-21.7,-179.12,-120.87,-119.87,-75.21
33.42,468.0,-12172.0,-12244.0,-22.28,-179.77,-135.17,-134.72,-73.36
33.5,536.0,-9762.0,-14740.0,-23.24,-180.76,-146.48,-149.48,-71.58
33.59,490.0,-4434.0,-17304.0,-22.14,-179.32,-165.63,-165.76,-16.46
33.68,512.0,-1048.0,-17754.0,-22.44,-179.62,-176.62,-180.24,-14.64
33.76,450.0,3212.0,-17334.0,-23.46,-180.39,169.5,165.3,-12.84
33.84,450.0,6976.0,-16126.0,-21.72,-178.35,156.61,151.66,-11.05
33.92,464.0,10712.0,-13750.0,-22.4,-177.73,142.08,138.23,41.71
34.0,416.0,13596.0,-10630.0,-22.49,-177.57,128.02,124.49,43.49
34.08,384.0,15404.0,-6820.0,-21.82,-176.65,113.88,110.8,45.24
34.16,308.0,16190.0,-3790.0,-22.22,-176.82,103.18,97.57,46.94
34.24,378.0,16066.0,1240.0,-21.34,-175.04,85.59,83.55,82.38
34.32,362.0,15232.0,4890.0,-20.78,-174.36,72.2,70.62,80.62
34.39,374.0,13112.0,8172.0,-21.1,-174.57,58.07,57.58,78.76
34.47,380.0,10490.0,10980.0,-20.96,-174.4,43.69,44.44,76.91
34.55,298.0,7142.0,13560.0,-21.43,-175.32,27.78,29.22,27.74
34.63,358.0,3384.0,14690.0,-22.29,-176.27,12.97,15.77,26.05
34.7,448.0,-1036.0,15038.0,-21.7,-175.86,-3.94,2.05,24.35
34.78,404.0,-3974.0,14640.0,-23.02,-177.59,-15.19,-11.59,22.6
34.86,470.0,-7352.0,13238.0,-22.53,-178.04,-29.05,-27.6,-27.41
34.94,510.0,-11940.0,10282.0,-22.2,-177.8,-49.27,-42.26,-29.26
35.02,512.0,-13862.0,7578.0,-23.34,-179.4,-61.34,-57.05,-31.1
35.1,538.0,-15648.0,3812.0,-21.68,-178.05,-76.31,-71.6,-32.87
35.18,446.0,-16266.0,388.0,-22.59,-179.34,-88.63,-86.47,-84.62
35.26,628.0,-16114.0,-4470.0,-21.53,-178.45,-105.5,-100.86,-86.23
35.34,508.0,-15370.0,-8080.0,-21.15,-178.42,-117.73,-115.77,-87.47
35.43,578.0,-12650.0,-11844.0,-20.89,-178.31,-133.12,-130.73,-87.72
35.51,566.0,-9866.0,-14730.0,-21.34,-178.9,-146.19,-146.07,-35.56
35.59,518.0,-5694.0,-16812.0,-21.1,-178.66,-161.29,-160.82,-33.78
35.68,490.0,-2184.0,-17716.0,-22.0,-179.6,-172.97,-175.34,-31.92
35.76,452.0,1904.0,-17670.0,-21.58,-178.98,173.85,170.34,-30.05
35.84,414.0,6544.0,-16398.0,-20.95,-177.76,158.24,156.35,23.14
35.92,414.0,10024.0,-14484.0,-21.58,-178.24,145.31,142.71,24.81
36.0,446.0,12350.0,-12000.0,-22.28,-178.72,134.18,129.14,26.52
36.08,418.0,14904.0,-8152.0,-21.23,-177.24,118.68,115.48,28.28
36.16,372.0,16058.0,-4360.0,-21.4,-176.44,105.19,102.04,79.02
36.24,424.0,16108.0,-606.0,-21.0,-175.82,92.15,88.66,80.67
36.31,360.0,15456.0,3422.0,-22.27,-176.83,77.52,75.63,82.38
36.39,390.0,14338.0,6588.0,-22.73,-177.13,65.32,62.64,84.18
36.47,378.0,11238.0,10186.0,-21.79,-175.75,47.81,48.46,46.62
36.55,378.0,8086.0,12774.0,-23.39,-177.39,32.33,34.75,44.9
36.62,422.0,4964.0,14296.0,-21.89,-176.06,19.15,21.35,43.21
36.7,354.0,1484.0,14966.0,-23.15,-177.47,5.66,7.84,41.46
36.78,406.0,-2764.0,14702.0,-21.8,-177.24,-10.65,-8.05,-8.15
36.86,372.0,-5954.0,14238.0,-21.7,-177.29,-22.69,-21.77,-10.02
36.93,526.0,-10342.0,11094.0,-20.73,-176.37,-42.99,-36.31,-11.93
37.02,508.0,-13396.0,8316.0,-21.89,-177.98,-58.17,-51.24,-13.78
37.1,538.0,-14908.0,5212.0,-20.94,-178.14,-70.73,-67.25,-65.69
37.18,572.0,-16326.0,1244.0,-21.18,-178.6,-85.64,-81.74,-67.39
37.26,542.0,-16464.0,-2230.0,-21.57,-179.27,-97.71,-96.08,-69.11
37.34,574.0,-15654.0,-7006.0,-21.73,-179.55,-114.11,-110.82,-70.89
37.43,564.0,-13398.0,-10810.0,-21.5,-180.01,-128.9,-127.95,-54.69
37.51,504.0,-10922.0,-13658.0,-22.15,-180.7,-141.35,-142.91,-52.95
37.6,534.0,-6750.0,-16324.0,-21.73,-180.18,-157.53,-157.91,-51.25
37.68,540.0,-3400.0,-17374.0,-21.42,-179.85,-168.93,-172.39,-49.49
37.77,462.0,1674.0,-17722.0,-21.98,-179.22,174.6,172.88,5.65
37.85,430.0,5514.0,-16938.0,-22.07,-179.2,161.97,159.3,7.41
37.92,438.0,8604.0,-15108.0,-22.5,-179.46,150.34,145.88,9.13
38.0,398.0,11280.0,-13060.0,-21.61,-178.24,139.18,132.77,10.92
38.09,434.0,14350.0,-9194.0,-22.02,-176.66,122.65,119.19,61.97
38.17,396.0,15952.0,-5070.0,-22.51,-176.95,107.63,105.52,63.68
38.25,376.0,16332.0,-1158.0,-21.92,-176.23,94.06,91.93,65.36
38.32,304.0,16022.0,2684.0,-23.36,-177.52,80.49,78.62,67.07
38.41,364.0,14314.0,6356.0,-22.73,-176.32,66.06,64.02,62.13
38.48,328.0,11860.0,10188.0,-22.58,-176.07,49.34,50.72,60.33
38.56,348.0,9034.0,12056.0,-22.6,-176.18,36.85,37.29,58.57
38.63,366.0,5810.0,13956.0,-21.82,-175.43,22.6,24.02,56.84
38.72,372.0,2304.0,14826.0,-22.89,-177.28,8.83,8.83,7.51
38.79,384.0,-1862.0,14794.0,-21.63,-176.01,-7.17,-4.03,5.64
38.86,442.0,-6012.0,13852.0,-20.72,-175.3,-23.46,-17.64,3.77
38.94,452.0,-8906.0,12286.0,-21.8,-176.78,-35.94,-31.64,1.99
39.03,508.0,-12212.0,9552.0,-21.56,-178.74,-51.97,-49.43,-47.96
39.11,590.0,-14998.0,5614.0,-21.85,-179.16,-69.48,-64.03,-49.75
39.18,566.0,-16126.0,2088.0,-22.24,-179.89,-82.62,-78.61,-51.54
39.26,578.0,-16406.0,-1812.0,-21.72,-179.64,-96.3,-93.13,-53.3
39.35,538.0,-16018.0,-5638.0,-22.52,-180.84,-109.39,-108.41,-73.81
39.43,582.0,-13880.0,-9708.0,-22.68,-181.07,-124.97,-123.48,-72.01
39.51,600.0,-11878.0,-13022.0,-21.72,-180.22,-137.63,-138.25,-70.22
39.6,600.0,-8182.0,-15670.0,-22.77,-181.23,-152.43,-153.29,-68.48
39.69,438.0,-3262.0,-17404.0,-22.31,-179.98,-169.38,-168.98,-13.24
39.77,482.0,476.0,-17796.0,-21.77,-179.47,178.47,176.42,-11.44
39.85,492.0,4220.0,-17400.0,-23.07,-180.63,166.37,162.64,-9.71
39.93,540.0,7444.0,-15994.0,-23.09,-180.39,155.04,149.14,-8.01
40.01,466.0,11196.0,-13192.0,-22.27,-178.49,139.68,135.89,43.07
40.09,482.0,13412.0,-10610.0,-23.27,-179.22,128.35,122.3,44.83
40.17,432.0,15198.0,-7166.0,-21.96,-177.45,115.24,108.91,46.55
40.24,480.0,16030.0,-2906.0,-23.39,-178.37,100.28,95.49,48.28
40.33,386.0,15912.0,1174.0,-22.42,-176.47,85.78,82.11,81.01
40.4,382.0,15094.0,5126.0,-21.42,-175.22,71.24,69.19,79.17
40.48,332.0,12816.0,8568.0,-20.9,-174.55,56.24,56.11,77.31
40.55,330.0,10572.0,10872.0,-21.81,-175.45,44.2,43.08,75.5
40.64,398.0,6656.0,13572.0,-20.94,-174.93,26.12,27.45,26.38
40.71,408.0,3190.0,14640.0,-21.7,-175.77,12.29,14.13,24.7
40.79,404.0,-396.0,15148.0,-21.1,-175.28,-1.5,0.79,22.96
40.86,424.0,-4454.0,14372.0,-22.51,-176.85,-17.22,-12.68,21.2
40.94,472.0,-8692.0,12584.0,-22.66,-177.93,-34.63,-28.97,-28.83
41.02,476.0,-10796.0,10946.0,-21.69,-177.3,-44.6,-43.12,-30.67
41.1,454.0,-14310.0,6690.0,-23.21,-178.91,-64.94,-58.09,-32.45
41.18,588.0,-15834.0,3146.0,-21.96,-178.14,-78.76,-72.76,-34.18
41.26,718.0,-16512.0,-1524.0,-22.63,-179.56,-95.27,-88.46,-85.84
41.35,660.0,-16516.0,-3940.0,-22.82,-180.24,-103.42,-102.96,-87.24
41.43,576.0,-14798.0,-8518.0,-21.57,-179.03,-119.93,-117.92,-87.78
41.51,556.0,-12926.0,-11732.0,-21.88,-179.49,-132.23,-132.65,-87.08
41.6,554.0,-9788.0,-14596.0,-23.11,-180.83,-146.15,-149.21,-32.34
41.69,558.0,-5138.0,-17028.0,-21.82,-179.35,-163.21,-163.93,-30.47
41.77,452.0,104.0,-18092.0,-22.79,-180.28,179.67,181.09,-28.61
41.85,432.0,2816.0,-17438.0,-22.21,-179.79,170.83,167.39,-26.82
41.93,464.0,6806.0,-16128.0,-21.09,-177.65,157.12,152.95,26.21
42.01,412.0,10868.0,-13786.0,-20.88,-177.2,141.75,139.3,27.95
42.09,408.0,13154.0,-11130.0,-21.55,-177.72,130.24,125.63,29.78
42.17,432.0,14906.0,-8056.0,-21.8,-177.66,118.39,112.14,31.62
42.25,386.0,16186.0,-3510.0,-21.89,-177.02,102.24,98.57,82.11
42.33,382.0,16154.0,640.0,-21.84,-176.71,87.73,85.19,83.91
42.4,380.0,15318.0,4324.0,-21.21,-175.89,74.24,72.39,85.72
42.48,272.0,13682.0,7730.0,-21.84,-176.38,60.53,59.29,87.44
42.56,308.0,11180.0,10842.0,-20.96,-175.22,45.88,44.79,43.28
42.64,636.0,7210.0,12538.0,-22.15,-176.34,29.9,31.28,41.58
42.71,468.0,3824.0,14674.0,-22.89,-177.17,14.61,17.73,39.84
42.79,428.0,1008.0,15088.0,-22.49,-176.98,3.82,4.41,38.1
42.87,460.0,-3986.0,14644.0,-23.11,-179.15,-15.23,-12.71,-11.99
42.95,438.0,-7460.0,12950.0,-21.4,-177.57,-29.94,-26.99,-13.84
43.03,500.0,-12284.0,10078.0,-22.66,-178.99,-50.63,-41.86,-15.64
43.11,618.0,-13560.0,7918.0,-22.6,-179.5,-59.72,-56.54,-17.39
43.2,422.0,-15798.0,3444.0,-21.78,-179.92,-77.7,-74.25,-71.19
43.28,440.0,-16168.0,-572.0,-22.59,-180.91,-92.03,-88.8,-73.02
43.36,656.0,-16246.0,-4434.0,-22.07,-180.57,-105.27,-103.25,-74.87
43.44,596.0,-15176.0,-8310.0,-21.15,-179.78,-118.7,-118.11,-76.69
43.53,538.0,-12948.0,-11756.0,-22.1,-180.63,-132.24,-133.53,-49.05
43.61,530.0,-9066.0,-14956.0,-21.37,-179.81,-148.78,-148.56,-47.23
43.7,516.0,-6078.0,-16738.0,-21.5,-179.96,-160.04,-163.1,-45.42
43.78,526.0,-2664.0,-17492.0,-22.94,-181.17,-171.34,-177.41,-43.66
43.87,432.0,2856.0,-17516.0,-23.17,-179.98,170.74,167.57,11.42
43.95,434.0,7078.0,-16266.0,-20.66,-177.29,156.48,153.92,13.3
44.03,390.0,10414.0,-13944.0,-20.92,-177.38,143.25,140.32,15.17
44.11,394.0,13150.0,-11022.0,-21.57,-177.83,129.97,126.56,16.98
44.19,402.0,15022.0,-7870.0,-21.74,-176.95,117.65,113.06,67.49
44.27,390.0,16104.0,-3374.0,-20.87,-175.78,101.83,99.53,69.22
44.35,464.0,16426.0,64.0,-21.87,-176.62,89.78,86.26,70.97
44.42,402.0,15394.0,4110.0,-21.46,-175.94,75.05,73.6,72.72
44.5,298.0,13654.0,7734.0,-21.78,-176.11,60.47,59.28,58.11
44.58,342.0,11108.0,10844.0,-21.4,-175.66,45.69,46.08,56.41
44.65,458.0,7952.0,12908.0,-22.8,-177.09,31.64,32.53,54.74
44.73,336.0,4610.0,14566.0,-22.18,-176.53,17.56,19.14,53.01
44.81,320.0,986.0,14988.0,-22.47,-177.67,3.76,3.63,3.17
44.88,370.0,-3102.0,14802.0,-22.73,-177.93,-11.84,-9.15,1.39
44.96,422.0,-6790.0,13574.0,-22.16,-177.53,-26.58,-22.95,-0.36
45.03,522.0,-10800.0,10842.0,-20.94,-176.56,-44.89,-37.45,-2.05
45.12,414.0,-14084.0,8640.0,-21.29,-178.97,-58.47,-55.0,-52.16
45.2,578.0,-15816.0,4852.0,-20.69,-178.59,-72.95,-69.44,-53.91
45.28,480.0,-16136.0,718.0,-20.95,-179.07,-87.45,-83.93,-55.78
45.36,524.0,-16770.0,-2324.0,-21.5,-179.88,-97.89,-97.97,-57.68
45.44,622.0,-15504.0,-7084.0,-21.51,-180.01,-114.56,-113.18,-69.62
45.52,528.0,-13368.0,-10796.0,-21.73,-180.32,-128.92,-128.12,-67.88
45.61,568.0,-11330.0,-13826.0,-21.89,-180.54,-140.67,-142.94,-66.18
45.69,490.0,-6954.0,-16344.0,-21.82,-180.29,-156.95,-157.88,-64.47
45.78,546.0,-2712.0,-17442.0,-21.37,-178.94,-171.16,-172.74,-9.19
45.86,382.0,544.0,-17592.0,-22.14,-179.6,178.23,173.14,-7.49
45.94,408.0,5350.0,-16852.0,-22.24,-179.34,162.39,159.6,-5.75
46.02,444.0,8758.0,-15314.0,-22.65,-179.54,150.23,146.01,-3.95
46.1,440.0,12064.0,-12232.0,-21.48,-177.11,135.4,132.74,47.03
46.18,428.0,14112.0,-9730.0,-22.26,-177.71,124.59,119.18,48.77
46.26,374.0,15712.0,-5740.0,-22.86,-177.92,110.07,105.71,50.52
46.33,390.0,16098.0,-1830.0,-22.29,-177.02,96.49,92.32,52.26
46.42,372.0,15962.0,2808.0,-23.05,-176.96,80.02,78.33,76.81
46.49,406.0,14154.0,6448.0,-21.89,-175.7,65.51,65.18,75.02
46.57,506.0,11886.0,9508.0,-23.15,-176.93,51.34,51.87,73.27
46.64,404.0,9380.0,11912.0,-21.52,-175.34,38.22,38.68,71.57
46.73,348.0,5818.0,13982.0,-21.82,-175.91,22.59,23.21,22.51
46.8,450.0,1812.0,14718.0,-20.81,-174.92,7.02,9.88,20.75
46.88,416.0,-1252.0,15000.0,-21.37,-175.66,-4.77,-3.04,18.98
46.95,444.0,-5594.0,14054.0,-21.02,-175.41,-21.7,-16.78,17.15
47.04,490.0,-8988.0,12312.0,-21.47,-177.05,-36.13,-33.14,-32.94
47.12,456.0,-12550.0,9186.0,-21.11,-176.87,-53.8,-47.63,-34.66
47.2,540.0,-14828.0,5908.0,-22.05,-178.2,-68.28,-62.26,-36.37
47.28,516.0,-15942.0,2462.0,-22.5,-179.07,-81.22,-76.84,-38.19
47.36,532.0,-16468.0,-1758.0,-21.54,-178.63,-96.09,-92.07,-87.68
47.44,522.0,-16152.0,-5962.0,-22.76,-180.14,-110.26,-106.85,-86.71
47.52,556.0,-14414.0,-9432.0,-22.79,-180.42,-123.2,-121.85,-85.22
47.6,570.0,-11916.0,-12930.0,-21.91,-179.65,-137.34,-136.72,-83.58
47.7,598.0,-8630.0,-15650.0,-22.54,-180.36,-151.13,-153.79,-28.06
47.78,480.0,-3204.0,-17320.0,-22.26,-179.93,-169.52,-168.68,-26.26
47.86,518.0,658.0,-17752.0,-21.73,-179.45,177.88,176.65,-24.49
47.94,462.0,4240.0,-17128.0,-23.03,-180.67,166.1,162.84,-22.76
48.03,448.0,8514.0,-15544.0,-23.11,-179.54,151.29,148.74,30.22
48.11,332.0,12146.0,-12614.0,-22.14,-178.41,136.08,134.9,32.06
48.18,494.0,13614.0,-10288.0,-23.34,-179.54,127.08,121.2,33.84
48.26,438.0,15180.0,-6806.0,-22.02,-177.81,114.15,107.74,35.59
48.35,284.0,16648.0,-1714.0,-22.89,-177.9,95.88,93.51,86.09
48.42,416.0,15982.0,1408.0,-22.61,-177.47,84.97,80.44,87.76
48.5,330.0,14682.0,5064.0,-21.07,-175.61,70.97,67.6,88.95
48.57,390.0,12716.0,8576.0,-21.06,-175.35,56.0,54.6,88.25
48.65,334.0,9460.0,11862.0,-21.59,-175.52,38.57,40.35,39.53
48.73,376.0,6398.0,13400.0,-20.89,-174.92,25.52,27.11,37.8
48.8,430.0,3064.0,14634.0,-21.56,-175.7,11.83,13.76,36.03
48.88,442.0,-410.0,15090.0,-20.92,-175.2,-1.56,0.44,34.16
48.97,466.0,-5058.0,14164.0,-21.82,-177.64,-19.65,-16.72,-15.86
49.04,416.0,-9300.0,12286.0,-22.31,-178.29,-37.12,-31.27,-17.62
49.12,538.0,-11676.0,10002.0,-21.41,-177.73,-49.42,-45.64,-19.32
49.2,590.0,-14602.0,6716.0,-22.86,-179.42,-65.3,-60.46,-21.03
49.3,582.0,-15886.0,2514.0,-22.44,-180.33,-81.01,-78.26,-74.99
49.37,532.0,-16428.0,-970.0,-22.05,-180.08,-93.38,-92.57,-76.8
49.45,756.0,-15802.0,-6180.0,-22.98,-181.06,-111.36,-107.22,-78.56
49.54,600.0,-14792.0,-9116.0,-22.62,-180.96,-121.64,-122.09,-80.28
49.62,644.0,-11696.0,-12884.0,-22.03,-180.42,-137.77,-137.92,-45.29
49.71,470.0,-7776.0,-15874.0,-23.24,-181.63,-153.9,-153.15,-43.51
49.79,554.0,-4280.0,-17058.0,-22.34,-180.77,-165.91,-167.85,-41.76
49.87,488.0,-404.0,-18100.0,-22.5,-180.79,-178.72,-182.38,-39.97
49.96,452.0,4246.0,-17050.0,-23.11,-179.9,166.02,162.6,15.35
50.04,512.0,7248.0,-16120.0,-23.08,-179.68,155.79,149.07,17.17
50.12,464.0,10038.0,-13866.0,-22.09,-178.28,144.1,135.84,18.95
50.2,406.0,12950.0,-11242.0,-23.08,-178.71,130.96,122.45,20.71
50.28,406.0,15272.0,-7028.0,-22.03,-176.65,114.71,109.0,71.17
50.36,484.0,16092.0,-2694.0,-23.47,-177.69,99.5,95.49,72.93
50.44,346.0,16218.0,1146.0,-21.92,-175.84,85.96,82.47,74.74
50.51,390.0,15050.0,4978.0,-21.37,-175.02,71.7,69.58,76.52
50.59,386.0,12626.0,8430.0,-20.85,-174.17,56.27,55.56,54.47
50.67,394.0,10482.0,11166.0,-21.42,-174.69,43.19,42.52,52.72
50.75,368.0,7090.0,13642.0,-21.48,-174.71,27.46,29.08,50.89
50.82,420.0,3420.0,14572.0,-22.29,-175.64,13.21,15.68,49.04
50.9,448.0,-360.0,15142.0,-21.08,-175.63,-1.36,-0.12,-0.65
50.98,500.0,-4676.0,14450.0,-22.43,-177.05,-17.93,-13.72,-2.34
51.05,476.0,-7400.0,13064.0,-22.34,-177.23,-29.53,-27.71,-4.09
51.13,518.0,-11872.0,10142.0,-22.19,-177.22,-49.49,-42.25,-5.84
51.22,592.0,-14396.0,6602.0,-23.1,-179.89,-65.36,-60.06,-58.12
51.3,524.0,-15816.0,3320.0,-21.92,-179.01,-78.14,-74.52,-59.99
51.38,454.0,-16308.0,-820.0,-22.61,-179.93,-92.88,-89.09,-61.82
51.46,658.0,-16306.0,-4178.0,-22.48,-180.05,-104.37,-103.42,-63.62
51.55,620.0,-14426.0,-9134.0,-22.23,-180.32,-122.34,-120.9,-62.14
51.64,520.0,-11574.0,-12674.0,-22.31,-180.47,-137.6,-135.9,-60.27
51.72,578.0,-9494.0,-14712.0,-23.36,-181.62,-147.16,-150.76,-58.42
51.8,566.0,-5120.0,-16978.0,-21.57,-179.6,-163.22,-165.36,-56.6
51.89,424.0,-492.0,-17652.0,-22.34,-180.2,-178.4,-181.29,-1.35
51.97,426.0,3082.0,-17364.0,-23.52,-181.2,169.94,164.62,0.4
52.05,478.0,6768.0,-16274.0,-21.07,-178.4,157.42,151.4,2.14
52.13,390.0,10904.0,-13688.0,-20.74,-177.65,141.46,138.05,3.9
52.21,394.0,13390.0,-10568.0,-21.62,-177.17,128.28,124.59,54.79
52.29,388.0,15322.0,-6776.0,-21.85,-177.17,113.86,110.8,56.61
52.37,326.0,16326.0,-3382.0,-21.5,-176.63,101.7,97.39,58.43
52.45,412.0,16052.0,938.0,-21.69,-176.51,86.66,84.04,60.26
52.53,284.0,15100.0,4880.0,-20.76,-174.71,72.09,69.99,69.03
52.61,444.0,12998.0,8294.0,-21.07,-174.91,57.46,56.92,67.34
52.68,366.0,10480.0,10972.0,-21.08,-174.89,43.69,43.81,65.59
52.76,404.0,7172.0,13100.0,-22.08,-175.89,28.7,30.3,63.83
52.84,362.0,3368.0,14808.0,-22.11,-176.63,12.81,14.9,14.27
52.91,380.0,-724.0,15070.0,-21.53,-176.17,-2.75,1.36,12.51
52.99,422.0,-4032.0,14484.0,-23.34,-178.24,-15.56,-12.08,10.81
53.07,516.0,-7758.0,13006.0,-21.6,-176.74,-30.82,-26.3,9.09
53.15,546.0,-12258.0,9912.0,-22.42,-179.7,-51.04,-44.12,-41.3
53.23,454.0,-13670.0,7714.0,-23.13,-180.83,-60.56,-58.59,-43.12
53.31,532.0,-15458.0,3890.0,-21.56,-179.39,-75.87,-73.04,-44.87
53.39,502.0,-16506.0,926.0,-22.54,-180.57,-86.79,-87.28,-46.63
53.47,724.0,-15866.0,-4588.0,-21.42,-179.63,-106.13,-102.38,-80.67
53.55,584.0,-15132.0,-8154.0,-20.69,-179.17,-118.32,-117.24,-78.87
53.63,638.0,-12608.0,-11874.0,-20.99,-179.55,-133.28,-132.15,-77.01
53.72,598.0,-10250.0,-14574.0,-21.79,-180.45,-144.88,-146.97,-75.13
53.81,458.0,-5424.0,-17042.0,-21.82,-179.83,-162.35,-163.01,-19.83
53.89,560.0,-2264.0,-17392.0,-23.09,-181.06,-172.58,-177.49,-18.05
53.98,452.0,2578.0,-17520.0,-21.76,-179.41,171.63,168.07,-16.28
54.05,446.0,6674.0,-16382.0,-20.86,-178.25,157.83,154.3,-14.46
54.14,392.0,10266.0,-14032.0,-20.92,-177.33,143.81,140.53,38.57
54.22,390.0,13332.0,-11114.0,-21.65,-177.85,129.82,126.73,40.26
54.3,348.0,14814.0,-8014.0,-20.98,-176.96,118.41,113.22,42.03
54.38,372.0,16070.0,-3902.0,-21.06,-176.65,103.65,99.82,43.81
54.46,388.0,16296.0,226.0,-22.22,-176.61,89.21,86.34,85.35
54.53,332.0,15378.0,4124.0,-21.76,-175.97,74.99,73.47,83.64
54.61,428.0,13642.0,7550.0,-21.95,-176.05,61.04,60.34,81.95
54.68,394.0,10998.0,10500.0,-21.67,-175.73,46.33,47.1,80.18
54.77,394.0,8008.0,12946.0,-22.54,-176.86,31.74,31.71,30.76
54.84,376.0,4390.0,14344.0,-22.69,-177.0,17.02,18.34,28.97
54.92,386.0,588.0,14954.0,-22.78,-177.17,2.25,4.85,27.24
54.99,414.0,-2490.0,14766.0,-22.0,-176.57,-9.57,-7.95,25.54
55.08,478.0,-8054.0,12914.0,-21.72,-178.14,-31.95,-26.12,-24.44
55.16,446.0,-9720.0,11888.0,-22.92,-179.64,-39.27,-40.26,-26.21
55.24,576.0,-13266.0,8254.0,-21.23,-177.89,-58.11,-54.61,-28.04
55.32,526.0,-15184.0,4506.0,-20.71,-177.59,-73.47,-69.04,-29.89
55.4,458.0,-16634.0,334.0,-20.8,-178.25,-88.85,-84.32,-81.87
55.48,478.0,-16140.0,-3544.0,-21.6,-179.35,-102.38,-98.67,-83.59
55.56,590.0,-15432.0,-7336.0,-21.28,-179.31,-115.43,-113.44,-85.29
55.64,598.0,-13490.0,-10974.0,-21.47,-179.65,-129.13,-128.32,-86.82
55.73,472.0,-9742.0,-14384.0,-21.94,-180.24,-145.89,-144.45,-38.33
55.81,500.0,-6890.0,-16418.0,-21.34,-179.75,-157.23,-159.07,-36.54
55.89,500.0,-2454.0,-17460.0,-21.37,-179.64,-172.0,-173.69,-34.8
55.98,518.0,1216.0,-17712.0,-22.25,-180.38,176.07,171.91,-32.95
56.06,476.0,5444.0,-16798.0,-21.79,-179.27,162.04,158.03,20.57
56.14,466.0,9464.0,-14720.0,-22.15,-179.31,147.26,144.34,22.28
56.21,370.0,12268.0,-12382.0,-21.66,-178.59,135.26,130.87,23.96
56.29,396.0,14192.0,-9462.0,-22.23,-178.79,123.69,117.43,25.62
56.38,338.0,16100.0,-4796.0,-22.31,-177.69,106.59,103.77,76.4
56.45,384.0,16342.0,-866.0,-21.79,-176.97,93.03,90.23,78.13
56.53,324.0,15786.0,2742.0,-23.23,-178.2,80.15,77.19,79.81
56.6,380.0,14352.0,6420.0,-21.93,-176.67,65.9,64.14,81.47
56.69,214.0,11606.0,10166.0,-22.72,-177.31,48.78,49.51,49.2
56.76,364.0,9128.0,12014.0,-22.4,-177.03,37.23,36.15,47.41
56.84,388.0,5958.0,13812.0,-21.69,-176.26,23.33,22.97,45.68
56.91,418.0,1936.0,14910.0,-20.79,-175.33,7.4,9.61,43.96
57.0,366.0,-2550.0,14608.0,-21.58,-176.98,-9.9,-6.42,-5.65
57.07,472.0,-6132.0,13740.0,-20.59,-176.17,-24.05,-20.09,-7.41
57.15,434.0,-9376.0,12160.0,-21.15,-176.96,-37.63,-34.18,-9.25
57.23,558.0,-12482.0,9332.0,-21.15,-177.18,-53.22,-48.43,-11.16
57.31,536.0,-15008.0,5524.0,-21.66,-179.01,-69.79,-65.42,-63.42
57.39,578.0,-16090.0,1946.0,-21.89,-179.5,-83.1,-79.89,-65.18
57.47,530.0,-16630.0,-2356.0,-21.42,-179.23,-98.06,-94.4,-66.89
57.55,570.0,-15572.0,-5940.0,-22.4,-180.46,-110.88,-109.05,-68.61
57.65,598.0,-13942.0,-10358.0,-22.12,-180.6,-126.61,-126.02,-56.8
57.73,540.0,-11008.0,-13692.0,-21.53,-180.04,-141.2,-141.06,-55.02
57.81,490.0,-7820.0,-15856.0,-22.29,-180.81,-153.75,-155.95,-53.26
57.89,548.0,-3288.0,-17520.0,-22.14,-180.51,-169.37,-170.7,-51.54
57.98,470.0,358.0,-17682.0,-21.45,-179.23,178.84,174.21,3.76
58.06,452.0,4618.0,-16920.0,-22.65,-180.14,164.73,160.85,5.48
58.14,426.0,9476.0,-14906.0,-23.0,-180.23,147.56,147.01,7.24
58.21,342.0,12250.0,-12708.0,-22.11,-179.31,136.05,133.44,8.98
58.3,406.0,13968.0,-9138.0,-22.72,-178.88,123.19,118.68,60.15
58.38,336.0,15692.0,-5832.0,-22.85,-178.78,110.39,105.1,61.91
58.46,364.0,16202.0,-2030.0,-22.64,-178.25,97.14,91.62,63.63
58.54,386.0,15708.0,1826.0,-23.53,-178.78,83.37,78.47,65.32
58.62,416.0,14264.0,6552.0,-21.95,-176.14,65.33,64.12,63.89
58.7,492.0,11802.0,9536.0,-23.17,-177.29,51.06,50.85,62.08
58.77,408.0,9438.0,11904.0,-21.63,-175.74,38.41,37.73,60.29
58.85,374.0,6014.0,13764.0,-21.23,-175.29,23.6,24.51,58.51
58.93,368.0,1776.0,14834.0,-21.04,-175.69,6.83,8.95,9.12
59.01,426.0,-1604.0,15066.0,-21.3,-176.06,-6.08,-3.83,7.28
59.08,470.0,-5306.0,14424.0,-21.37,-176.27,-20.2,-17.25,5.39
59.16,498.0,-9036.0,12210.0,-21.91,-177.0,-36.5,-31.32,3.52
59.24,504.0,-12690.0,9220.0,-21.08,-178.26,-54.0,-49.09,-46.57
59.32,510.0,-14566.0,6262.0,-22.3,-179.75,-66.74,-63.55,-48.34
59.4,554.0,-16084.0,2328.0,-22.48,-180.12,-81.76,-78.11,-50.13
59.48,566.0,-16428.0,-1266.0,-21.63,-179.52,-94.41,-92.49,-51.91
59.57,596.0,-15834.0,-5806.0,-22.51,-181.25,-110.14,-110.08,-73.3
59.66,626.0,-13992.0,-10034.0,-22.47,-181.21,-125.65,-125.06,-71.5
59.74,524.0,-11606.0,-13062.0,-21.73,-180.51,-138.38,-139.99,-69.7
59.82,516.0,-8604.0,-15720.0,-22.89,-181.56,-151.31,-154.83,-67.97
59.91,502.0,-3400.0,-17324.0,-22.4,-180.33,-168.9,-170.31,-12.58
60.0,476.0,986.0,-17778.0,-21.58,-179.42,176.83,175.06,-10.8
60.07,450.0,4038.0,-17202.0,-23.05,-180.77,166.79,161.42,-9.06
60.15,434.0,7808.0,-15636.0,-23.17,-180.51,153.46,147.85,-7.35
60.23,338.0,12218.0,-12606.0,-22.21,-178.67,135.9,134.14,43.87
60.31,404.0,14182.0,-9658.0,-23.28,-179.61,124.26,120.3,45.63
60.39,388.0,15376.0,-6796.0,-22.08,-178.1,113.84,107.09,47.34
60.47,530.0,16488.0,-1902.0,-23.34,-178.82,96.58,93.45,49.1
60.55,408.0,15900.0,1640.0,-23.21,-177.3,84.11,80.57,80.07
60.63,304.0,14822.0,5202.0,-21.82,-175.67,70.66,67.67,78.2
60.7,486.0,12584.0,8908.0,-21.18,-174.83,54.71,54.58,76.36
60.78,304.0,10334.0,11272.0,-21.65,-175.29,42.51,41.54,74.56
60.86,406.0,6118.0,13604.0,-20.82,-174.67,24.21,26.11,25.43
60.94,456.0,2582.0,14832.0,-21.4,-175.36,9.88,12.74,23.7
61.01,366.0,-638.0,14848.0,-20.85,-174.98,-2.46,-0.35,21.95
61.09,448.0,-5070.0,14118.0,-22.21,-176.48,-19.75,-14.07,20.17
61.17,482.0,-9360.0,12284.0,-22.39,-178.05,-37.31,-30.93,-30.03
61.25,468.0,-11640.0,10158.0,-21.44,-177.47,-48.89,-45.27,-31.84
61.33,596.0,-14520.0,6660.0,-22.98,-179.26,-65.36,-60.12,-33.59
61.41,584.0,-15922.0,3210.0,-22.71,-179.35,-78.6,-74.68,-35.3
61.49,622.0,-16560.0,-1540.0,-22.18,-179.53,-95.31,-90.34,-86.88
61.57,472.0,-16416.0,-4016.0,-23.19,-180.89,-103.75,-104.75,-87.74
61.65,560.0,-14490.0,-8648.0,-21.76,-179.39,-120.83,-119.66,-87.36
61.74,472.0,-12018.0,-12494.0,-22.34,-180.06,-136.11,-134.65,-86.08
61.83,442.0,-7604.0,-15616.0,-22.98,-180.19,-154.04,-151.18,-30.87
61.91,558.0,-4910.0,-17250.0,-22.47,-179.85,-164.11,-165.85,-29.0
62.0,458.0,-752.0,-17772.0,-22.6,-179.86,-177.58,-180.41,-27.19
62.08,462.0,3332.0,-17424.0,-23.55,-180.62,169.17,165.28,-25.41
62.16,410.0,7618.0,-15984.0,-22.08,-178.44,154.52,151.52,27.64
62.24,440.0,10558.0,-14148.0,-21.41,-177.56,143.27,138.15,29.48
62.32,472.0,13232.0,-10740.0,-21.76,-177.53,129.07,124.55,31.31
62.4,386.0,15272.0,-7118.0,-21.75,-177.16,114.99,110.96,33.13
62.48,458.0,15982.0,-3354.0,-23.42,-177.5,101.85,97.89,83.64
62.56,228.0,16116.0,1110.0,-21.5,-175.3,86.06,84.52,85.46
62.63,404.0,15092.0,4716.0,-20.81,-174.5,72.65,71.55,87.2
62.71,308.0,13364.0,7890.0,-21.28,-174.89,59.44,58.54,88.67
62.79,394.0,10596.0,11008.0,-21.41,-175.15,43.91,43.95,41.82
62.86,356.0,7012.0,13370.0,-21.74,-175.48,27.68,30.37,40.09
62.94,400.0,3336.0,14580.0,-22.42,-176.34,12.89,16.79,38.36
63.01,410.0,-648.0,14978.0,-21.83,-176.03,-2.48,3.05,36.6
63.1,448.0,-4376.0,14504.0,-22.77,-178.63,-16.79,-13.95,-13.59
63.18,450.0,-7464.0,13342.0,-22.55,-178.56,-29.22,-28.16,-15.41
63.26,478.0,-11220.0,10564.0,-22.03,-178.1,-46.72,-42.59,-17.18
63.34,550.0,-13976.0,7386.0,-23.44,-179.77,-62.14,-57.43,-18.9
63.43,560.0,-15750.0,3122.0,-22.55,-180.57,-78.79,-75.55,-72.78
63.51,654.0,-16630.0,-1492.0,-22.32,-180.5,-95.13,-90.2,-74.64
63.59,566.0,-16190.0,-3788.0,-23.37,-181.83,-103.17,-104.67,-76.47
63.67,580.0,-14814.0,-8636.0,-20.97,-179.34,-120.24,-119.51,-78.26
63.76,564.0,-12566.0,-11972.0,-22.22,-180.6,-133.61,-135.05,-47.38
63.84,464.0,-9148.0,-14936.0,-23.4,-181.69,-148.51,-150.08,-45.57
63.92,530.0,-5588.0,-16822.0,-21.27,-179.44,-161.62,-164.58,-43.77
64.01,394.0,-38.0,-17946.0,-22.5,-180.45,-179.88,-179.48,-42.0
64.1,476.0,3656.0,-17106.0,-23.5,-180.1,167.94,165.88,13.3
64.18,424.0,7666.0,-16078.0,-21.48,-177.96,154.51,152.15,15.17
64.25,460.0,10768.0,-13790.0,-20.76,-177.1,142.02,138.59,17.0
64.33,414.0,13286.0,-10722.0,-21.43,-177.53,128.9,124.89,18.79
64.42,394.0,15658.0,-6178.0,-21.94,-177.56,111.53,110.68,69.4
64.49,310.0,16398.0,-3494.0,-21.98,-177.55,102.03,97.25,71.16
64.57,418.0,16012.0,1058.0,-21.5,-176.71,86.22,83.87,72.92
64.65,418.0,15060.0,4578.0,-20.82,-175.85,73.09,70.92,74.73
64.73,338.0,13146.0,8092.0,-21.24,-175.78,58.39,57.36,56.06
64.8,380.0,10588.0,10862.0,-20.95,-175.41,44.27,44.22,54.39
64.88,378.0,7300.0,13112.0,-22.05,-176.51,29.11,30.64,52.64
64.95,412.0,3768.0,14604.0,-22.8,-177.38,14.47,17.07,50.81
65.04,432.0,-1256.0,15002.0,-21.82,-177.39,-4.79,0.69,0.94
65.11,508.0,-3932.0,14676.0,-23.03,-178.91,-15.0,-12.69,-0.81
65.19,416.0,-7332.0,13316.0,-21.37,-177.4,-28.84,-26.73,-2.49
65.27,486.0,-11512.0,10376.0,-22.71,-178.88,-47.97,-41.31,-4.23
65.36,472.0,-13838.0,7478.0,-23.44,-180.82,-61.61,-58.3,-56.4
65.43,496.0,-15666.0,3846.0,-21.5,-179.07,-76.21,-72.75,-58.31
65.51,570.0,-16632.0,516.0,-21.89,-179.66,-88.22,-87.07,-60.2
65.59,604.0,-16034.0,-4528.0,-21.41,-179.27,-105.77,-101.46,-62.03
65.69,562.0,-14842.0,-8574.0,-21.61,-180.3,-120.01,-119.1,-63.72
65.77,544.0,-12938.0,-11722.0,-21.95,-180.68,-132.18,-133.86,-61.9
65.85,536.0,-8554.0,-15280.0,-21.64,-180.28,-150.76,-149.05,-60.04
65.93,434.0,-5886.0,-16804.0,-21.57,-180.32,-160.7,-163.64,-58.2
66.02,466.0,266.0,-18028.0,-22.82,-180.68,179.15,180.86,-2.9
66.1,462.0,2938.0,-17550.0,-22.19,-180.15,170.5,167.25,-1.06
66.18,424.0,6808.0,-16266.0,-20.77,-178.52,157.29,153.63,0.7
66.26,444.0,9476.0,-14686.0,-21.42,-178.91,147.17,140.47,2.45
66.35,418.0,13252.0,-11018.0,-21.5,-176.99,129.74,126.76,53.4
66.42,412.0,14882.0,-7944.0,-21.77,-177.11,118.09,113.1,55.11
66.5,432.0,16264.0,-3528.0,-20.91,-175.95,102.24,99.56,56.94
66.58,398.0,16336.0,188.0,-21.33,-176.2,89.34,86.25,58.76
66.66,432.0,15168.0,4562.0,-20.84,-175.06,73.26,72.23,70.38
66.74,334.0,13658.0,7854.0,-21.63,-175.8,60.1,59.12,68.69
66.81,300.0,10990.0,10926.0,-21.23,-175.34,45.17,45.93,66.94
66.89,400.0,7998.0,12958.0,-22.49,-176.64,31.68,32.43,65.18
66.97,414.0,3512.0,14626.0,-22.61,-177.37,13.5,16.6,15.65
67.05,456.0,36.0,14752.0,-22.22,-177.15,0.14,3.1,13.85
67.12,460.0,-3852.0,14436.0,-23.45,-178.56,-14.94,-9.91,12.11
67.2,496.0,-7994.0,12916.0,-22.04,-177.48,-31.75,-24.23,10.4
67.28,498.0,-10954.0,10884.0,-22.91,-178.9,-45.18,-40.2,-39.8
67.36,498.0,-13274.0,8348.0,-0.01,-156.28,-57.83,-53.1,-41.68
67.44,540.0,-15348.0,4464.0,-21.21,-177.77,-73.78,-67.49,-43.5
67.52,524.0,-16358.0,202.0,-20.81,-177.79,-89.29,-82.2,-45.24
67.6,606.0,-16278.0,-4106.0,-21.48,-179.87,-104.16,-98.64,-82.06
67.69,560.0,-15030.0,-7668.0,-21.09,-179.83,-117.03,-113.57,-80.32
67.77,624.0,-12992.0,-11356.0,-21.12,-180.1,-131.16,-128.65,-78.48
67.85,594.0,-9708.0,-14614.0,-21.67,-180.84,-146.4,-143.99,-76.61
67.94,550.0,-5822.0,-16678.0,-21.03,-180.38,-160.76,-160.57,-21.06
68.03,452.0,-1926.0,-17730.0,-20.98,-180.34,-173.8,-175.3,-19.37
68.11,412.0,1680.0,-17736.0,-21.71,-180.97,174.59,170.2,-17.66
68.19,436.0,6220.0,-16436.0,-21.42,-180.37,159.27,156.2,-15.88
68.27,478.0,9442.0,-14802.0,-21.55,-179.9,147.47,141.98,37.37
68.35,460.0,12510.0,-11800.0,-22.46,-180.45,133.33,128.34,39.04
68.43,380.0,15024.0,-7718.0,-21.24,-178.88,117.19,114.44,40.71
68.51,364.0,15994.0,-4590.0,-21.69,-179.13,106.01,100.96,42.42
68.59,360.0,16190.0,-68.0,-20.95,-177.09,90.24,87.26,86.58
68.67,402.0,15546.0,3740.0,-21.91,-177.86,76.47,74.32,84.93
68.74,482.0,13668.0,7446.0,-22.57,-178.38,61.42,60.99,83.24
68.82,350.0,11660.0,9850.0,-22.21,-177.99,49.81,47.84,81.51
68.9,364.0,8082.0,12934.0,-22.96,-178.85,32.0,32.38,32.04
68.98,402.0,4850.0,14126.0,-22.11,-178.02,18.95,19.04,30.23
69.05,418.0,-162.0,15120.0,-23.31,-179.22,-0.61,5.13,28.46
69.12,416.0,-3132.0,14752.0,-21.51,-177.81,-11.99,-8.32,26.73
69.21,538.0,-7436.0,13010.0,-22.14,-178.63,-29.75,-24.02,-23.2
69.29,498.0,-10230.0,11564.0,-21.92,-178.72,-41.5,-38.4,-25.01
69.37,536.0,-13544.0,7796.0,-21.34,-178.34,-60.08,-53.28,-26.79
69.45,514.0,-15304.0,4710.0,-20.8,-178.25,-72.89,-67.84,-28.63
69.53,540.0,-16330.0,930.0,-21.05,-179.12,-86.74,-83.13,-80.72
69.61,620.0,-16308.0,-2764.0,-21.76,-180.08,-99.62,-97.4,-82.39
69.69,578.0,-15598.0,-6958.0,-21.61,-180.09,-114.04,-112.05,-84.13
69.77,564.0,-13452.0,-10680.0,-21.85,-180.49,-128.45,-127.07,-85.79
69.86,554.0,-11116.0,-13624.0,-21.87,-180.49,-140.79,-142.64,-39.56
69.94,532.0,-7076.0,-16218.0,-21.79,-180.28,-156.43,-157.57,-37.79
70.03,496.0,-3242.0,-17380.0,-21.76,-180.16,-169.43,-172.12,-36.03
70.11,462.0,720.0,-17634.0,-22.27,-180.46,177.66,173.48,-34.25
70.19,424.0,5450.0,-16638.0,-22.18,-179.79,161.86,159.48,19.36
70.27,398.0,8888.0,-14942.0,-22.79,-180.21,149.25,145.77,21.11
70.35,430.0,11308.0,-13136.0,-21.63,-178.77,139.28,132.56,22.82
70.43,350.0,14010.0,-9168.0,-22.6,-179.18,123.2,118.87,24.5
70.51,384.0,15704.0,-5516.0,-22.74,-177.85,109.35,105.47,75.14
70.59,410.0,16274.0,-1242.0,-21.95,-176.81,94.36,91.88,76.91
70.66,294.0,15892.0,2700.0,-23.43,-178.11,80.36,78.52,78.63
70.74,464.0,14448.0,6240.0,-22.05,-176.6,66.64,65.41,80.29
70.82,510.0,11590.0,9744.0,-23.11,-177.16,49.95,51.65,50.53
70.89,384.0,9478.0,12032.0,-21.58,-175.74,38.23,38.45,48.68
70.97,318.0,6224.0,13852.0,-21.17,-175.34,24.2,25.21,46.91
71.04,328.0,2242.0,14934.0,-20.8,-175.05,8.54,11.76,45.17
71.13,386.0,-1420.0,15076.0,-21.63,-177.25,-5.38,-4.39,-4.39
71.2,436.0,-5648.0,14134.0,-21.05,-176.72,-21.78,-18.1,-6.15
71.28,500.0,-9076.0,12258.0,-21.83,-177.73,-36.52,-32.33,-7.92
71.36,510.0,-12880.0,9126.0,-21.08,-177.27,-54.68,-46.9,-9.79
71.45,510.0,-14802.0,5704.0,-22.04,-179.95,-68.93,-64.76,-62.11
71.53,574.0,-16280.0,2186.0,-22.24,-180.37,-82.35,-79.27,-63.91
71.61,576.0,-16474.0,-2002.0,-21.55,-179.86,-96.93,-93.76,-65.65
71.69,624.0,-16136.0,-5740.0,-22.69,-181.2,-109.58,-108.4,-67.35
71.78,548.0,-13892.0,-10002.0,-22.3,-181.03,-125.75,-124.85,-58.2
71.86,502.0,-11316.0,-13180.0,-21.45,-180.24,-139.35,-139.85,-56.4
71.94,542.0,-8418.0,-15872.0,-22.44,-181.19,-152.06,-154.74,-54.64
72.03,544.0,-3794.0,-17262.0,-22.37,-180.94,-167.6,-169.46,-52.9
72.12,448.0,912.0,-17860.0,-21.56,-179.46,177.08,175.23,2.38
72.19,412.0,4110.0,-17268.0,-23.02,-180.79,166.61,161.9,4.1
72.27,410.0,7384.0,-15960.0,-22.89,-180.35,155.17,148.61,5.82
72.35,442.0,10708.0,-13490.0,-22.21,-179.19,141.56,135.4,7.56
72.43,452.0,12912.0,-11198.0,-23.37,-179.29,130.93,122.49,56.81
72.51,420.0,15312.0,-7042.0,-22.18,-177.48,114.7,109.0,58.64
72.59,470.0,15978.0,-3178.0,-23.41,-178.28,101.25,95.65,60.48
72.66,298.0,16224.0,1396.0,-21.47,-175.88,85.08,82.39,62.23
72.75,324.0,14914.0,5368.0,-21.11,-174.74,70.2,68.56,67.08
72.82,418.0,12766.0,8808.0,-21.42,-174.94,55.4,55.44,65.33
72.9,384.0,10152.0,11130.0,-21.95,-175.47,42.37,42.3,63.56
72.97,394.0,7006.0,13510.0,-21.47,-175.0,27.41,28.85,61.75
73.06,432.0,2786.0,14608.0,-21.35,-175.58,10.8,13.1,12.24
73.13,456.0,-870.0,14842.0,-20.79,-175.15,-3.35,-0.27,10.54
73.21,420.0,-4866.0,14084.0,-22.39,-176.93,-19.06,-13.93,8.8
73.28,452.0,-7578.0,13418.0,-22.53,-177.42,-29.46,-27.74,6.93
73.37,464.0,-10900.0,10798.0,-21.66,-177.12,-45.27,-42.99,-43.37
73.45,536.0,-14342.0,6728.0,-23.25,-178.85,-64.87,-57.95,-45.12
73.53,558.0,-15876.0,3252.0,-22.28,-178.36,-78.42,-72.61,-46.87
73.6,708.0,-16442.0,-1490.0,-22.56,-179.07,-95.18,-87.55,-48.67
73.7,456.0,-15600.0,-5744.0,-23.27,-181.04,-110.21,-105.31,-76.65
73.78,622.0,-14518.0,-9010.0,-21.99,-180.02,-121.82,-120.26,-74.76
73.86,498.0,-12114.0,-12220.0,-22.38,-180.5,-135.25,-135.13,-72.92
73.95,538.0,-8592.0,-15224.0,-23.47,-181.6,-150.56,-150.31,-71.11
74.03,524.0,-4402.0,-17396.0,-22.19,-179.96,-165.8,-165.86,-15.84
74.12,468.0,-242.0,-17992.0,-22.51,-180.28,-179.23,-180.6,-14.01
74.2,488.0,3072.0,-17416.0,-23.6,-181.27,170.0,165.11,-12.19
74.28,448.0,7048.0,-16126.0,-21.11,-178.44,156.39,151.45,-10.42
74.36,412.0,10392.0,-13818.0,-22.13,-177.98,143.05,137.95,42.5
74.44,384.0,13606.0,-10524.0,-22.29,-177.83,127.72,124.17,44.26
74.52,326.0,15618.0,-6520.0,-21.95,-177.24,112.66,110.34,46.02
74.6,456.0,16006.0,-3388.0,-23.38,-178.51,101.95,96.88,47.73
74.69,310.0,16054.0,1224.0,-21.97,-176.22,85.64,82.91,81.41
74.76,396.0,14960.0,5120.0,-20.68,-174.76,71.11,69.91,79.57
74.84,444.0,13024.0,8626.0,-21.01,-175.01,56.48,56.77,77.7
74.91,418.0,10300.0,11066.0,-21.18,-175.2,42.95,43.58,75.86
74.99,350.0,6750.0,13566.0,-21.13,-175.6,26.45,28.3,26.59
75.07,418.0,3224.0,14624.0,-21.83,-176.42,12.43,14.88,24.9
75.14,382.0,-402.0,15120.0,-21.31,-176.06,-1.52,1.42,23.16
75.22,386.0,-3884.0,14712.0,-23.01,-177.96,-14.79,-11.97,21.39
75.3,464.0,-8612.0,12656.0,-22.69,-178.88,-34.23,-29.18,-28.8
75.38,472.0,-10674.0,10996.0,-21.85,-178.33,-44.15,-43.35,-30.65
75.46,524.0,-14524.0,6774.0,-23.24,-179.76,-65.0,-58.35,-32.44
75.54,580.0,-15628.0,3164.0,-22.14,-179.12,-78.55,-73.03,-34.17
75.63,618.0,-16430.0,-988.0,-22.27,-181.4,-93.44,-91.8,-87.33
75.71,416.0,-15590.0,-5400.0,-23.26,-182.48,-109.1,-106.43,-87.77
75.8,640.0,-14488.0,-8896.0,-22.06,-181.43,-121.55,-121.39,-86.96
75.88,536.0,-11794.0,-12774.0,-22.31,-181.7,-137.28,-136.43,-85.55
75.97,454.0,-7430.0,-15828.0,-22.95,-181.9,-154.85,-153.32,-30.21
76.06,466.0,-4696.0,-17446.0,-22.44,-181.47,-164.93,-168.03,-28.34
76.14,488.0,-1040.0,-17464.0,-22.45,-181.29,-176.59,-182.49,-26.55
76.22,426.0,3792.0,-17256.0,-23.63,-182.08,167.61,162.93,-24.77
76.3,414.0,7492.0,-16242.0,-22.07,-179.84,155.24,149.23,28.29
76.38,412.0,10106.0,-13950.0,-21.53,-178.89,144.08,136.01,30.11
76.46,300.0,13984.0,-10456.0,-21.93,-178.69,126.79,122.3,31.95
76.54,354.0,15598.0,-6540.0,-21.82,-178.24,112.75,108.61,33.77
76.62,506.0,16042.0,-2726.0,-23.43,-178.07,99.64,95.94,84.17
76.7,388.0,16122.0,1154.0,-21.37,-175.76,85.91,82.88,85.98
76.77,424.0,15180.0,4802.0,-20.59,-174.74,72.45,70.02,87.67
76.85,342.0,13216.0,8056.0,-21.08,-175.05,58.64,57.07,88.93
76.93,406.0,10498.0,11040.0,-21.4,-175.23,43.56,42.81,41.49
77.01,424.0,6994.0,13500.0,-21.61,-175.4,27.39,29.31,39.75
77.08,448.0,3338.0,14516.0,-22.27,-176.18,12.95,15.84,38.02
77.16,508.0,-896.0,14886.0,-21.79,-175.91,-3.44,2.11,36.25
77.24,422.0,-4460.0,14350.0,-22.58,-178.12,-17.27,-14.55,-13.85
77.32,500.0,-7826.0,13008.0,-22.69,-178.38,-31.03,-28.83,-15.66
77.4,504.0,-11196.0,10524.0,-22.07,-177.88,-46.77,-43.2,-17.42
77.48,502.0,-14232.0,7104.0,-23.33,-179.37,-63.47,-58.07,-19.12
77.57,568.0,-15814.0,3120.0,-22.5,-180.2,-78.84,-76.08,-72.91
77.65,606.0,-16750.0,-1430.0,-22.52,-180.36,-94.88,-90.66,-74.75
77.73,562.0,-16100.0,-4286.0,-23.33,-181.42,-104.91,-105.18,-76.57
77.81,582.0,-14884.0,-8584.0,-21.18,-179.25,-119.97,-119.95,-78.34
77.9,476.0,-12432.0,-12106.0,-22.29,-180.18,-134.24,-135.32,-47.4
77.98,462.0,-9126.0,-14990.0,-23.43,-181.25,-148.67,-150.31,-45.59
78.07,526.0,-5438.0,-16874.0,-20.83,-178.54,-162.14,-164.77,-43.8
78.15,446.0,-644.0,-17866.0,-22.5,-180.0,-177.94,-179.44,-42.04
78.24,502.0,3370.0,-17392.0,-23.59,-179.79,169.03,166.01,13.12
78.32,394.0,7198.0,-16186.0,-20.58,-176.6,156.03,152.5,14.99
78.4,386.0,11136.0,-13578.0,-20.7,-176.5,140.64,138.86,16.83
78.48,320.0,13426.0,-10734.0,-21.36,-177.03,128.64,125.16,18.63
78.56,434.0,15442.0,-6680.0,-21.8,-176.67,113.39,111.17,69.06
78.64,342.0,16274.0,-3382.0,-21.69,-176.41,101.74,97.75,70.81
78.72,392.0,16062.0,920.0,-21.73,-176.17,86.72,84.39,72.56
78.79,402.0,15088.0,4468.0,-21.14,-175.4,73.5,71.63,74.36
78.87,368.0,13390.0,8058.0,-21.12,-175.0,58.96,58.04,56.61
78.94,456.0,10592.0,10844.0,-20.9,-174.71,44.33,44.89,54.93
79.02,368.0,7688.0,13094.0,-22.27,-176.12,30.42,31.4,53.19
79.1,392.0,4258.0,14420.0,-22.76,-176.68,16.45,18.0,51.35
79.18,386.0,-748.0,15020.0,-21.87,-176.47,-2.85,2.02,1.61
79.25,428.0,-4268.0,14532.0,-23.54,-178.43,-16.37,-11.35,-0.15
79.33,470.0,-7908.0,13210.0,-21.6,-176.8,-30.91,-25.61,-1.83
79.41,458.0,-10412.0,11080.0,-22.95,-178.51,-43.22,-39.86,-3.57
79.5,500.0,-13668.0,7608.0,-23.09,-179.91,-60.9,-57.55,-55.56
79.58,548.0,-15504.0,3986.0,-21.51,-178.5,-75.58,-71.95,-57.47
79.66,468.0,-16526.0,1120.0,-22.73,-179.93,-86.12,-86.19,-59.36
79.74,702.0,-15978.0,-4662.0,-21.64,-178.84,-106.27,-100.82,-61.19
79.83,588.0,-14830.0,-8524.0,-20.55,-178.59,-119.89,-117.92,-64.56
79.91,562.0,-12870.0,-11914.0,-20.83,-178.98,-132.79,-132.68,-62.83
80.0,516.0,-9354.0,-14878.0,-21.33,-179.49,-147.84,-147.67,-60.98
80.08,530.0,-6188.0,-16860.0,-21.34,-179.51,-159.85,-162.24,-59.09
80.17,458.0,-1364.0,-17520.0,-22.89,-179.76,-175.55,-176.82,-3.93
80.25,392.0,2788.0,-17556.0,-21.98,-178.77,170.98,168.83,-2.09
80.33,444.0,6940.0,-16304.0,-20.76,-177.4,156.94,155.13,-0.28
80.4,386.0,9564.0,-14586.0,-21.33,-177.85,146.75,141.73,1.46
80.49,392.0,13164.0,-11008.0,-21.73,-177.47,129.9,127.84,52.37
80.57,396.0,14936.0,-8124.0,-20.98,-176.58,118.54,114.24,54.09
80.64,440.0,15922.0,-4120.0,-21.12,-176.42,104.51,100.81,55.85
80.72,330.0,16396.0,-306.0,-21.76,-176.78,91.07,87.37,57.69
80.81,370.0,15192.0,4240.0,-21.5,-175.68,74.41,73.27,71.3
80.88,272.0,13562.0,7710.0,-21.66,-175.78,60.38,60.12,69.63
80.96,426.0,11048.0,10636.0,-21.44,-175.54,46.09,46.89,67.99
81.03,362.0,8042.0,12922.0,-22.95,-177.11,31.9,33.29,66.32
81.12,328.0,4296.0,14406.0,-22.75,-177.39,16.61,17.83,16.85
81.19,392.0,942.0,14828.0,-22.45,-177.16,3.64,4.48,15.03
81.26,426.0,-2884.0,14752.0,-22.6,-177.37,-11.06,-8.44,13.25
81.34,536.0,-6936.0,13394.0,-21.93,-176.87,-27.38,-22.5,11.53
81.43,404.0,-9724.0,11728.0,-22.94,-178.8,-39.66,-38.41,-38.59
81.51,500.0,-13214.0,8334.0,-21.18,-177.11,-57.76,-52.83,-40.45
81.58,516.0,-15180.0,4660.0,-20.93,-177.19,-72.93,-67.34,-42.3
81.66,488.0,-16418.0,816.0,-21.24,-177.89,-87.15,-81.91,-44.06
81.75,540.0,-16178.0,-3450.0,-21.73,-179.29,-102.04,-97.78,-83.17
81.83,564.0,-15276.0,-7222.0,-21.47,-179.31,-115.3,-112.61,-81.46
81.91,600.0,-13380.0,-11128.0,-21.63,-179.66,-129.75,-127.62,-79.71
81.99,474.0,-10336.0,-13986.0,-22.27,-180.46,-143.53,-142.76,-77.86
82.09,492.0,-6466.0,-16308.0,-21.14,-179.15,-158.37,-159.07,-22.28
82.17,486.0,-2142.0,-17720.0,-20.98,-178.96,-173.11,-173.75,-20.58
82.25,440.0,2778.0,-17738.0,-21.94,-179.87,171.1,171.4,-18.84
82.33,412.0,5554.0,-16688.0,-21.68,-179.63,161.59,157.57,-17.08
82.42,402.0,10254.0,-14392.0,-21.88,-179.35,144.53,142.84,36.24
82.49,348.0,12816.0,-11814.0,-22.44,-179.8,132.67,128.93,37.95
82.57,424.0,14908.0,-7724.0,-21.47,-178.57,117.39,115.02,39.62
82.65,346.0,15950.0,-4642.0,-22.03,-178.95,106.23,101.52,41.28
82.74,462.0,16040.0,-574.0,-21.0,-176.89,92.05,88.01,87.64
82.81,366.0,15508.0,3416.0,-22.43,-178.04,77.58,74.92,86.05
82.88,426.0,14446.0,6492.0,-22.74,-178.16,65.8,61.96,84.37
82.96,314.0,12118.0,10116.0,-22.53,-177.66,50.15,48.78,82.68
83.05,296.0,8112.0,12840.0,-23.33,-178.39,32.28,33.42,33.29
83.12,428.0,5116.0,14196.0,-21.92,-177.04,19.82,20.13,31.43
83.2,386.0,1350.0,14844.0,-23.38,-178.53,5.2,6.63,29.63
83.27,462.0,-2800.0,14806.0,-21.34,-176.58,-10.71,-6.6,27.88
83.35,422.0,-6278.0,13920.0,-21.27,-177.9,-24.28,-23.28,-21.98
83.43,510.0,-10624.0,11074.0,-21.22,-177.91,-43.81,-37.83,-23.77
83.51,484.0,-13292.0,8062.0,-21.76,-178.81,-58.76,-52.69,-25.56
83.59,598.0,-15060.0,5326.0,-21.25,-178.71,-70.52,-67.14,-27.38
83.68,598.0,-16144.0,724.0,-21.04,-179.69,-87.43,-84.87,-81.28
83.76,550.0,-16134.0,-3316.0,-22.02,-180.81,-101.61,-99.16,-82.94
83.84,580.0,-15452.0,-7122.0,-21.53,-180.46,-114.75,-113.9,-84.64
83.93,556.0,-13404.0,-10836.0,-21.68,-180.66,-128.95,-128.8,-86.24
84.01,554.0,-10368.0,-13782.0,-22.01,-180.67,-143.05,-144.26,-38.91
84.1,568.0,-6956.0,-16364.0,-21.73,-180.32,-156.97,-159.12,-37.13
84.18,490.0,-2682.0,-17338.0,-21.66,-180.1,-171.21,-173.71,-35.37
84.26,494.0,1486.0,-17620.0,-22.25,-180.5,175.18,171.77,-33.56
84.35,434.0,5778.0,-16584.0,-21.53,-178.11,160.79,157.49,21.85
84.43,426.0,10274.0,-14384.0,-21.9,-178.3,144.46,143.62,23.54
84.51,348.0,12420.0,-12088.0,-22.46,-178.81,134.22,129.82,11.35
84.59,400.0,14778.0,-8396.0,-21.8,-177.86,119.6,116.05,15.18
84.67,388.0,15906.0,-4636.0,-21.89,-177.16,106.25,102.3,77.77
84.75,404.0,16336.0,-610.0,-21.11,-176.13,92.14,88.82,79.46
84.83,366.0,15458.0,3332.0,-22.5,-177.28,77.84,75.74,81.12
84.9,362.0,14434.0,6412.0,-22.76,-177.38,66.05,62.77,82.86
84.98,316.0,12068.0,9912.0,-22.36,-176.59,50.6,48.98,47.7
85.06,376.0,8902.0,12304.0,-23.51,-177.64,35.89,35.69,45.95
85.13,422.0,4884.0,14150.0,-21.82,-175.93,19.04,22.2,44.23
85.21,386.0,2102.0,14718.0,-22.61,-176.96,8.13,8.86,42.54
85.28,416.0,-2534.0,14740.0,-21.67,-176.26,-9.75,-5.1,-5.47
85.36,400.0,-6080.0,13804.0,-20.73,-175.66,-23.77,-18.92,-7.23
85.44,460.0,-9164.0,12410.0,-21.2,-176.5,-36.44,-33.05,-9.05
85.51,558.0,-12452.0,9414.0,-20.95,-176.53,-52.91,-47.44,-10.97
85.6,542.0,-15002.0,5562.0,-21.81,-179.45,-69.66,-65.68,-63.33
85.68,568.0,-16040.0,1910.0,-22.02,-179.9,-83.21,-80.18,-65.1
85.76,556.0,-16530.0,-2368.0,-21.59,-179.66,-98.15,-94.72,-66.82
85.84,556.0,-15804.0,-5808.0,-22.56,-180.87,-110.18,-109.31,-68.53
85.93,596.0,-13976.0,-10368.0,-22.55,-181.11,-126.57,-125.83,-56.81
86.01,590.0,-11784.0,-13162.0,-22.18,-180.78,-138.16,-140.69,-54.99
86.1,552.0,-7824.0,-15786.0,-22.51,-180.95,-153.64,-155.61,-53.21
86.18,480.0,-3454.0,-17474.0,-22.53,-180.82,-168.82,-170.35,-51.46
86.27,456.0,1454.0,-17944.0,-21.74,-179.29,175.37,174.46,3.67
86.35,464.0,4686.0,-17044.0,-22.86,-180.35,164.63,160.89,5.45
86.42,468.0,7226.0,-15760.0,-23.24,-180.49,155.37,147.7,7.21
86.5,454.0,11988.0,-12740.0,-21.82,-178.52,136.74,134.19,8.95
86.58,324.0,14726.0,-9188.0,-23.38,-179.75,121.96,120.02,60.18
86.67,342.0,15902.0,-5728.0,-22.57,-178.8,109.81,105.19,61.95
86.75,374.0,16064.0,-2010.0,-22.51,-178.38,97.13,91.81,63.68
86.82,406.0,15744.0,1636.0,-23.7,-179.14,84.07,78.78,65.4
86.9,316.0,14808.0,5708.0,-21.66,-176.37,68.92,65.84,65.65
86.97,380.0,13260.0,8600.0,-22.92,-177.4,57.03,52.98,63.88
87.05,364.0,9528.0,11780.0,-21.59,-175.74,38.97,39.73,62.07
87.12,390.0,6516.0,13548.0,-20.93,-175.14,25.69,26.51,60.28
87.21,356.0,2226.0,14934.0,-20.85,-175.61,8.48,10.87,10.84
87.28,394.0,-1464.0,14820.0,-20.89,-175.79,-5.64,-2.4,9.11
87.36,430.0,-5150.0,14230.0,-22.44,-177.55,-19.9,-16.03,7.26
87.43,486.0,-8328.0,12608.0,-22.07,-177.44,-33.45,-30.02,-8.9
87.52,528.0,-12344.0,9606.0,-21.16,-177.51,-52.11,-46.49,-44.84
87.6,552.0,-14728.0,6300.0,-22.88,-179.56,-66.84,-61.18,-46.63
87.68,524.0,-15790.0,2854.0,-22.85,-179.9,-79.75,-75.78,-48.45
87.76,660.0,-16562.0,-1558.0,-22.34,-179.67,-95.37,-90.48,-50.26
87.85,744.0,-15914.0,-6438.0,-22.93,-181.77,-112.03,-108.86,-74.96
87.93,542.0,-14608.0,-9304.0,-22.94,-181.94,-122.49,-123.75,-73.1
88.01,562.0,-11330.0,-13052.0,-22.11,-181.04,-139.04,-138.69,-71.3
88.1,512.0,-7820.0,-15974.0,-23.21,-182.17,-153.92,-153.9,-69.52
88.19,480.0,-4134.0,-17024.0,-22.84,-180.88,-166.35,-168.76,-14.18
88.27,436.0,-536.0,-17928.0,-22.11,-180.01,-178.29,-183.18,-12.35
88.35,482.0,4590.0,-17146.0,-23.51,-181.09,165.01,162.35,-10.55
88.43,364.0,7816.0,-16082.0,-21.78,-179.17,154.08,148.68,-8.8
88.52,366.0,11694.0,-12876.0,-21.89,-176.9,137.75,135.78,44.07
88.6,376.0,14502.0,-9216.0,-23.37,-178.28,122.44,121.71,45.82
88.68,370.0,15414.0,-6630.0,-22.21,-177.06,113.27,108.3,47.57
88.75,304.0,16760.0,-1762.0,-23.2,-177.72,96.0,94.55,49.35
88.84,408.0,15684.0,1706.0,-23.69,-177.32,83.79,81.11,79.68
88.91,336.0,14602.0,5468.0,-21.05,-174.52,69.47,68.14,77.79
88.99,364.0,12614.0,8816.0,-22.02,-175.4,55.05,55.0,75.93
89.06,386.0,9858.0,11608.0,-21.83,-175.21,40.34,41.73,74.13
89.15,446.0,6098.0,13710.0,-20.76,-174.63,23.98,26.33,24.91
89.22,408.0,2386.0,14714.0,-21.11,-175.12,9.21,12.92,23.21
89.3,382.0,-838.0,14944.0,-21.01,-175.24,-3.21,-0.27,21.47
89.37,408.0,-4454.0,14314.0,-22.79,-177.23,-17.28,-13.84,19.68
89.46,492.0,-9130.0,12334.0,-21.86,-177.63,-36.51,-31.08,-30.6
89.54,518.0,-12440.0,9568.0,-21.16,-177.23,-52.43,-45.63,-32.39
89.62,574.0,-14644.0,6328.0,-22.94,-179.43,-66.63,-60.35,-34.12
89.7,526.0,-15948.0,3042.0,-22.73,-179.64,-79.2,-74.95,-35.89
89.78,604.0,-16534.0,-1534.0,-22.31,-179.92,-95.3,-90.57,-87.36
89.86,358.0,-15578.0,-5504.0,-23.36,-181.3,-109.46,-105.49,-87.73
89.94,646.0,-14524.0,-9258.0,-21.5,-179.73,-122.51,-120.5,-86.87
90.02,558.0,-12326.0,-12446.0,-21.15,-179.54,-135.28,-135.29,-85.42
90.12,638.0,-7862.0,-16172.0,-23.2,-182.0,-154.07,-153.17,-29.92
90.2,526.0,-4752.0,-17176.0,-22.88,-181.73,-164.54,-167.86,-28.05
90.28,432.0,-194.0,-17836.0,-22.24,-180.89,-179.38,-182.49,-26.24
90.36,446.0,4118.0,-17332.0,-23.65,-182.08,166.63,163.05,-24.43
90.45,440.0,7570.0,-16274.0,-22.21,-180.14,155.05,149.23,28.58
90.52,440.0,10670.0,-14068.0,-21.18,-178.71,142.82,135.93,30.4
90.6,434.0,13248.0,-10886.0,-22.56,-179.56,129.41,122.42,32.25
90.68,380.0,15658.0,-6416.0,-22.05,-178.51,112.28,108.67,34.07
90.77,578.0,16400.0,-2048.0,-23.47,-178.66,97.12,95.23,84.72
90.84,342.0,16188.0,1230.0,-21.63,-176.69,85.65,82.14,86.52
90.92,346.0,14980.0,4980.0,-20.71,-175.51,71.61,69.23,88.15
90.99,394.0,13076.0,8232.0,-21.06,-175.68,57.81,56.22,88.96
91.08,368.0,10394.0,11260.0,-21.56,-175.88,42.71,41.74,40.68
91.15,380.0,6934.0,13564.0,-21.38,-175.64,27.08,28.29,38.95
91.23,436.0,3440.0,14738.0,-22.07,-176.41,13.14,14.92,37.2
91.3,470.0,-874.0,15050.0,-21.55,-176.01,-3.32,1.3,35.37
91.38,438.0,-5078.0,14196.0,-22.29,-177.96,-19.68,-14.93,-14.91
91.47,466.0,-8920.0,12446.0,-22.74,-179.04,-35.63,-30.39,-30.99
91.55,490.0,-11520.0,10318.0,-21.63,-178.23,-48.15,-45.94,-32.78
91.63,540.0,-14366.0,6676.0,-22.91,-179.64,-65.08,-60.73,-34.51
91.71,584.0,-15898.0,3214.0,-22.7,-179.74,-78.57,-75.26,-36.23
91.79,574.0,-16360.0,-940.0,-22.12,-179.75,-93.29,-90.63,-87.53
91.87,512.0,-15602.0,-5966.0,-23.28,-181.1,-110.93,-105.49,-87.66
91.96,608.0,-14630.0,-9160.0,-21.98,-180.2,-122.05,-120.5,-86.64
92.04,554.0,-12202.0,-12458.0,-21.17,-179.52,-135.59,-135.31,-85.15
92.12,448.0,-7960.0,-15416.0,-23.4,-181.46,-152.69,-150.75,-31.5
92.21,488.0,-5016.0,-17082.0,-21.38,-179.59,-163.64,-165.35,-29.58
92.29,454.0,362.0,-17996.0,-22.43,-180.5,178.85,179.69,-27.74
92.37,430.0,3498.0,-17658.0,-22.46,-180.6,168.79,165.91,-25.92
92.45,430.0,7530.0,-15930.0,-20.36,-177.25,154.7,152.12,26.94
92.53,350.0,11216.0,-13454.0,-20.6,-177.33,140.18,138.43,28.66
92.61,368.0,13416.0,-10844.0,-20.97,-177.57,128.95,124.78,30.46
92.69,382.0,15376.0,-7180.0,-20.42,-176.71,115.03,111.18,32.29
92.77,356.0,16196.0,-3744.0,-21.13,-176.44,103.02,97.92,81.7
92.85,432.0,16078.0,284.0,-21.62,-176.58,88.99,84.71,83.44
92.92,392.0,15380.0,4096.0,-21.19,-175.85,75.09,72.03,85.2
93.0,306.0,13968.0,7084.0,-21.18,-175.61,63.11,59.27,86.88
93.08,336.0,11212.0,10576.0,-20.35,-174.01,46.67,45.27,45.86
93.16,362.0,7846.0,12752.0,-22.28,-175.86,31.6,31.88,44.26
93.23,344.0,4784.0,14192.0,-20.69,-174.29,18.63,18.81,42.64
93.31,382.0,2078.0,14824.0,-21.19,-174.8,7.98,5.91,40.96
93.39,414.0,-2294.0,14866.0,-19.79,-173.33,-8.77,-8.49,-5.81
93.47,438.0,-5952.0,13980.0,-18.92,-172.47,-23.06,-21.68,-7.42
93.55,408.0,-9532.0,12188.0,-19.98,-173.63,-38.03,-35.45,-9.13
93.62,532.0,-12088.0,9880.0,-19.25,-173.06,-50.74,-49.1,-10.9
93.71,538.0,-14514.0,6410.0,-20.79,-175.17,-66.17,-65.23,-58.88
93.79,578.0,-15688.0,3278.0,-19.82,-174.25,-78.2,-78.97,-60.57
93.87,402.0,-16138.0,-264.0,-20.92,-175.31,-90.94,-92.69,-62.2
93.95,484.0,-16036.0,-3720.0,-19.18,-173.44,-103.06,-106.14,-63.82
94.04,548.0,-15120.0,-7824.0,-18.44,-171.51,-117.36,-120.5,-67.16
94.12,570.0,-13528.0,-10944.0,-18.82,-171.71,-128.97,-134.23,-65.61
94.21,540.0,-10256.0,-13740.0,-19.05,-171.61,-143.26,-148.13,-64.02
94.29,490.0,-7368.0,-15888.0,-19.63,-171.86,-155.12,-161.84,-62.42
94.38,526.0,-3574.0,-17512.0,-19.71,-169.66,-168.47,-174.46,-13.21
94.46,492.0,-766.0,-17694.0,-19.6,-169.18,-177.52,-187.54,-11.64
94.54,480.0,3322.0,-17514.0,-20.63,-169.53,169.26,159.58,-10.12
94.62,440.0,6446.0,-16658.0,-18.66,-166.86,158.85,147.47,-8.62
94.71,404.0,10076.0,-14340.0,-18.62,-162.97,144.91,137.43,37.48
94.79,406.0,12440.0,-12044.0,-19.5,-163.42,134.07,125.2,39.06
94.87,420.0,14652.0,-8720.0,-18.73,-162.08,120.76,113.04,40.65
94.95,356.0,15800.0,-6236.0,-19.56,-162.39,111.54,101.32,42.21
95.03,376.0,16082.0,-2446.0,-19.15,-159.93,98.65,90.28,85.63
95.11,402.0,16188.0,958.0,-18.07,-158.31,86.61,78.93,87.05
95.18,390.0,15360.0,4092.0,-18.0,-157.71,75.08,67.96,88.33
95.26,366.0,13702.0,7456.0,-19.03,-158.21,61.45,56.59,88.99
95.34,406.0,11810.0,9930.0,-18.1,-155.39,49.94,45.63,48.27
95.42,368.0,9232.0,11958.0,-18.09,-155.14,37.67,34.28,46.85
95.49,374.0,6906.0,13386.0,-18.5,-155.34,27.29,23.01,45.42
95.57,414.0,3454.0,14688.0,-18.05,-154.59,13.23,11.58,43.93
95.65,452.0,-326.0,14872.0,-17.56,-153.51,-1.26,-0.84,2.58
95.72,420.0,-3066.0,14766.0,-18.49,-154.46,-11.73,-12.19,1.13
95.8,434.0,-6420.0,13774.0,-18.15,-154.09,-24.99,-24.12,-0.38
95.88,518.0,-8940.0,12400.0,-17.29,-153.29,-35.79,-36.06,-1.87
95.96,534.0,-11490.0,10354.0,-17.28,-153.18,-47.98,-48.29,-43.0
96.04,528.0,-13474.0,7902.0,-18.25,-154.13,-59.61,-60.56,-44.43
96.12,566.0,-15302.0,4590.0,-17.96,-153.77,-73.3,-72.78,-45.91
96.2,538.0,-16198.0,1830.0,-16.96,-152.81,-83.55,-84.75,-47.38
96.29,594.0,-16542.0,-1438.0,-17.65,-152.89,-94.97,-97.78,-87.44
96.37,452.0,-15804.0,-5314.0,-18.58,-153.67,-108.58,-109.99,-86.48
96.45,654.0,-14992.0,-8438.0,-17.53,-152.53,-119.37,-122.3,-85.24
96.53,516.0,-13272.0,-11178.0,-16.26,-151.06,-130.1,-134.35,-83.91
96.63,526.0,-11222.0,-13452.0,-17.72,-150.68,-140.16,-145.95,-39.88
96.71,554.0,-7862.0,-15588.0,-17.76,-150.4,-153.24,-158.11,-38.45
96.79,480.0,-4468.0,-17132.0,-17.23,-149.56,-165.38,-170.02,-37.02
96.88,438.0,-1684.0,-17970.0,-17.83,-149.85,-174.65,-181.7,-35.66
96.97,484.0,2372.0,-17678.0,-16.73,-146.25,172.36,167.57,7.64
97.04,440.0,4826.0,-17194.0,-16.7,-145.96,164.32,156.91,8.98
97.12,472.0,7050.0,-16026.0,-17.76,-146.56,156.25,146.46,10.35
97.2,446.0,9714.0,-14278.0,-17.92,-146.05,145.77,135.94,11.79
97.29,390.0,12758.0,-11572.0,-16.64,-142.09,132.21,126.28,51.23
97.37,362.0,14588.0,-8616.0,-16.1,-141.22,120.57,115.49,52.55
97.45,224.0,15968.0,-5472.0,-16.95,-141.76,108.92,104.76,53.87
97.52,376.0,16270.0,-3528.0,-17.4,-141.93,102.23,94.38,55.24
97.61,376.0,16198.0,-78.0,-16.76,-139.34,90.28,84.74,85.77
97.68,398.0,15660.0,2880.0,-16.31,-138.55,79.58,74.89,84.49
97.76,368.0,14662.0,5906.0,-16.31,-138.25,68.06,64.81,83.22
97.83,380.0,13378.0,7978.0,-16.24,-137.95,59.19,54.88,81.93
97.92,384.0,11012.0,10710.0,-16.72,-137.26,45.8,44.48,44.78
97.99,400.0,8770.0,12386.0,-17.5,-137.97,35.3,34.09,43.44
98.07,400.0,6384.0,13582.0,-16.48,-136.87,25.18,23.94,42.09
98.14,392.0,3718.0,14716.0,-15.92,-136.23,14.18,13.77,40.78
98.23,452.0,124.0,14770.0,-15.97,-136.27,0.48,2.14,3.48
98.3,470.0,-2316.0,14800.0,-15.56,-135.96,-8.89,-7.55,2.17
98.37,464.0,-5028.0,14190.0,-15.54,-136.01,-19.51,-17.86,0.84
98.45,440.0,-7948.0,12862.0,-16.1,-136.68,-31.71,-28.66,-0.53
98.54,486.0,-10172.0,11562.0,-16.68,-138.11,-41.34,-41.42,-37.78
98.62,466.0,-12576.0,9128.0,-16.04,-137.47,-54.03,-52.56,-39.14
98.7,564.0,-14306.0,6948.0,-15.93,-137.45,-64.1,-63.48,-40.48
98.78,590.0,-15552.0,4098.0,-15.54,-137.1,-75.24,-74.4,-41.79
98.86,552.0,-16254.0,1484.0,-15.47,-137.11,-84.78,-85.54,-80.03
98.94,568.0,-16598.0,-1332.0,-15.95,-137.53,-94.59,-96.26,-81.3
99.02,578.0,-16278.0,-4510.0,-16.82,-138.28,-105.49,-107.18,-82.59
99.1,524.0,-15108.0,-7300.0,-16.33,-137.65,-115.79,-118.26,-83.89
99.19,548.0,-13914.0,-10350.0,-15.17,-135.85,-126.64,-129.33,-56.11
99.27,566.0,-11808.0,-12778.0,-15.46,-135.95,-137.26,-140.37,-54.89
99.35,526.0,-9456.0,-14856.0,-15.47,-135.72,-147.52,-151.3,-53.64
99.44,538.0,-7412.0,-15982.0,-15.92,-135.87,-155.12,-161.75,-52.37
99.53,486.0,-3930.0,-17470.0,-15.62,-133.92,-167.32,-171.99,-12.38
99.61,494.0,-762.0,-17756.0,-15.71,-133.71,-177.54,-182.54,-11.14
99.69,444.0,1784.0,-17708.0,-15.22,-132.87,174.25,167.35,-9.91
99.77,428.0,4666.0,-16900.0,-14.92,-132.06,164.57,157.74,-8.67
99.85,436.0,7542.0,-16026.0,-16.18,-131.27,154.8,148.68,29.11
99.93,428.0,9916.0,-14400.0,-15.73,-130.47,145.45,139.02,30.38
100.01,392.0,12382.0,-12360.0,-15.53,-129.87,134.95,129.37,31.64
100.09,376.0,14328.0,-9584.0,-15.9,-129.86,123.78,119.36,32.84
100.18,306.0,15340.0,-7066.0,-14.89,-127.71,114.73,110.02,67.96
100.25,374.0,16052.0,-4312.0,-14.44,-126.96,105.04,100.38,69.13
100.33,408.0,16270.0,-2074.0,-14.69,-126.88,97.26,90.93,70.33
100.41,410.0,16194.0,658.0,-14.06,-125.78,87.67,81.83,71.53
100.49,356.0,15562.0,3438.0,-14.21,-124.39,77.54,73.34,74.32
100.57,310.0,14692.0,5788.0,-14.33,-124.25,68.5,64.26,73.17
100.65,340.0,13340.0,8132.0,-13.53,-123.16,58.63,55.21,72.01
100.72,418.0,11744.0,9724.0,-13.71,-123.1,50.38,46.26,70.86
100.8,368.0,9696.0,11562.0,-13.26,-121.81,39.98,37.32,39.35
100.88,398.0,7750.0,13090.0,-13.06,-121.43,30.63,28.31,38.26
100.95,370.0,5760.0,13892.0,-13.1,-121.31,22.52,19.39,37.14
101.03,402.0,3448.0,14620.0,-13.02,-121.0,13.27,10.48,35.98
101.11,392.0,872.0,14872.0,-12.69,-119.97,3.36,1.27,5.51
101.19,376.0,-1320.0,14794.0,-12.37,-119.52,-5.1,-7.12,4.44
101.26,454.0,-3588.0,14720.0,-13.31,-120.33,-13.7,-16.04,3.38
101.34,472.0,-5662.0,13998.0,-12.43,-119.28,-22.02,-25.05,2.35
101.42,420.0,-7342.0,13438.0,-12.66,-118.84,-28.65,-33.88,-26.92
101.5,536.0,-10084.0,11260.0,-11.87,-117.71,-41.85,-43.2,-27.96
101.58,500.0,-11428.0,10436.0,-11.6,-117.35,-47.6,-52.27,-28.99
101.67,424.0,-12872.0,8846.0,-11.15,-116.54,-55.5,-61.15,-30.0
101.75,540.0,-14402.0,6650.0,-11.31,-115.06,-65.22,-69.35,-59.83
101.83,542.0,-15214.0,4726.0,-11.32,-114.8,-72.74,-78.08,-60.78
101.91,520.0,-15916.0,2864.0,-11.22,-114.34,-79.8,-86.6,-61.73
101.99,594.0,-16166.0,1056.0,-11.18,-113.79,-86.26,-94.85,-62.69
102.08,550.0,-16670.0,-1132.0,-11.31,-111.71,-93.88,-101.94,-87.44
102.16,572.0,-16372.0,-3438.0,-10.69,-110.6,-101.86,-110.3,-86.85
102.25,558.0,-15774.0,-5820.0,-10.63,-109.96,-110.25,-118.67,-86.1
102.33,622.0,-15422.0,-7644.0,-10.66,-109.38,-116.37,-126.74,-85.33
102.42,568.0,-13970.0,-9960.0,-10.14,-105.78,-125.49,-132.93,-57.82
102.5,554.0,-13096.0,-11270.0,-10.5,-105.67,-130.71,-140.84,-56.94
102.59,476.0,-11628.0,-12828.0,-9.76,-104.24,-137.81,-148.61,-56.06
102.67,496.0,-10324.0,-14306.0,-9.68,-103.37,-144.18,-156.02,-55.19
102.76,510.0,-8558.0,-15494.0,-9.98,-100.85,-151.09,-161.63,-28.91
102.84,500.0,-7282.0,-16268.0,-10.28,-100.43,-155.89,-168.66,-28.08
102.93,524.0,-5656.0,-16828.0,-10.18,-99.39,-161.42,-175.5,-27.27
103.01,508.0,-2824.0,-17438.0,-9.63,-97.74,-170.8,-182.3,-26.47
103.1,442.0,-688.0,-17778.0,-9.93,-93.45,-177.78,-185.56,-1.65
103.18,486.0,636.0,-17700.0,-9.53,-92.59,177.94,167.97,-0.84
103.26,454.0,2916.0,-17754.0,-9.34,-91.74,170.67,161.81,-0.08
103.33,482.0,4094.0,-17468.0,-9.39,-91.18,166.81,155.85,0.67
103.41,462.0,5706.0,-16686.0,-9.66,-89.7,161.12,150.91,21.96
103.49,346.0,7650.0,-15842.0,-9.08,-88.41,154.22,145.0,22.72
103.57,402.0,9048.0,-15082.0,-8.92,-87.56,149.04,139.27,23.46
103.64,426.0,9776.0,-14548.0,-9.51,-87.38,146.1,133.85,24.18
103.73,408.0,11852.0,-12946.0,-8.72,-82.88,137.53,130.62,45.05
103.81,400.0,12764.0,-11708.0,-8.64,-82.4,132.53,124.84,45.79
103.89,436.0,13076.0,-10986.0,-9.54,-82.8,130.04,119.34,46.5
103.96,390.0,14248.0,-9158.0,-8.56,-81.07,122.73,113.86,47.19
104.05,368.0,15404.0,-7148.0,-8.41,-78.25,114.89,109.94,67.28
104.13,312.0,16146.0,-5072.0,-8.8,-78.36,107.44,104.16,67.95
104.2,350.0,16048.0,-4510.0,-8.23,-77.58,105.7,98.78,68.61
104.28,346.0,16460.0,-2314.0,-8.7,-77.59,98.0,93.31,69.3
104.36,424.0,16278.0,-1182.0,-7.99,-75.58,94.15,88.87,87.65
104.44,398.0,16124.0,192.0,-8.19,-75.45,89.32,83.71,88.21
104.51,384.0,16014.0,1114.0,-8.56,-75.44,86.02,78.88,88.72
104.58,396.0,15810.0,2664.0,-8.02,-74.38,80.44,74.02,88.98
104.66,326.0,15358.0,4268.0,-7.72,-73.16,74.47,69.4,72.79
104.73,414.0,14944.0,5310.0,-7.78,-72.85,70.44,64.6,72.16
104.81,336.0,14196.0,6802.0,-7.89,-72.52,64.4,59.72,71.52
104.88,398.0,13574.0,7660.0,-7.34,-71.6,60.56,55.03,70.87
104.96,406.0,12704.0,8762.0,-8.15,-70.96,55.41,51.1,54.12
105.03,340.0,11728.0,9954.0,-7.2,-69.71,49.68,46.28,53.47
105.11,416.0,10894.0,10638.0,-7.68,-69.95,45.68,41.53,52.85
105.18,400.0,9998.0,11430.0,-7.26,-69.21,41.18,36.81,52.24
105.26,414.0,8442.0,12712.0,-7.58,-69.0,33.59,31.91,35.78
105.33,370.0,7868.0,13112.0,-6.95,-68.25,30.97,27.26,35.17
105.41,318.0,6558.0,13560.0,-7.4,-68.41,25.81,22.55,34.58
105.48,374.0,5320.0,14008.0,-6.73,-67.47,20.8,17.89,33.96
105.56,400.0,3944.0,14632.0,-7.06,-67.08,15.09,13.39,17.83
105.63,406.0,2990.0,14716.0,-6.62,-66.52,11.49,8.75,17.24
105.71,406.0,1832.0,14898.0,-7.18,-66.88,7.01,4.17,16.67
105.78,452.0,758.0,15082.0,-6.93,-66.42,2.88,-0.26,16.06
105.86,450.0,-696.0,14968.0,-6.34,-64.79,-2.66,-4.41,0.29
105.93,392.0,-2102.0,14832.0,-6.76,-65.12,-8.07,-9.06,-0.28
106.01,456.0,-3086.0,14862.0,-7.22,-65.52,-11.73,-13.78,-0.88
106.08,472.0,-4186.0,14440.0,-6.68,-64.84,-16.17,-18.54,-1.46
106.17,428.0,-5560.0,13904.0,-6.56,-64.3,-21.8,-23.54,-17.59
106.24,488.0,-7116.0,13212.0,-6.34,-63.97,-28.31,-28.51,-18.14
106.32,448.0,-7184.0,13534.0,-6.98,-64.6,-27.96,-33.09,-18.72
106.4,460.0,-8470.0,12712.0,-6.62,-63.89,-33.68,-37.69,-19.3
106.49,480.0,-9642.0,11956.0,-6.35,-62.89,-38.88,-42.23,-35.59
106.56,474.0,-10856.0,10844.0,-6.42,-62.76,-45.03,-46.97,-36.14
106.64,544.0,-11814.0,10096.0,-6.07,-62.28,-49.48,-51.69,-36.69
106.72,548.0,-12434.0,9534.0,-6.18,-62.24,-52.52,-56.25,-37.26
106.81,492.0,-13312.0,8298.0,-6.4,-61.39,-58.06,-60.34,-53.2
106.89,528.0,-13990.0,7428.0,-6.21,-61.06,-62.03,-64.86,-53.73
106.96,540.0,-14548.0,6106.0,-5.89,-60.55,-67.23,-69.39,-54.26
107.04,548.0,-15072.0,5564.0,-6.53,-61.03,-69.74,-73.76,-54.82
107.13,520.0,-15566.0,4068.0,-6.05,-59.71,-75.35,-77.98,-70.69
107.21,552.0,-15750.0,3264.0,-6.35,-59.84,-78.29,-82.31,-71.21
107.28,526.0,-16084.0,2236.0,-6.09,-59.32,-82.09,-86.53,-71.76
107.36,586.0,-16218.0,554.0,-6.31,-59.22,-88.04,-90.87,-72.32
107.45,526.0,-16398.0,-348.0,-6.21,-57.96,-91.22,-94.33,-87.04
107.52,558.0,-16404.0,-1460.0,-5.98,-57.53,-95.09,-98.52,-87.37
107.6,574.0,-16466.0,-2368.0,-6.39,-57.71,-98.18,-102.67,-87.6
107.68,514.0,-16078.0,-4358.0,-6.08,-57.08,-105.17,-107.07,-87.73
107.78,572.0,-15928.0,-5378.0,-6.24,-55.88,-108.66,-110.61,-74.16
107.86,570.0,-15666.0,-6574.0,-6.01,-55.53,-112.76,-114.96,-73.63
107.94,568.0,-15146.0,-7570.0,-6.12,-55.52,-116.56,-119.25,-73.1
108.02,546.0,-15066.0,-8318.0,-6.39,-55.61,-118.9,-123.36,-72.58
108.1,586.0,-14308.0,-9816.0,-5.95,-54.62,-124.45,-127.4,-57.02
108.19,550.0,-13638.0,-10696.0,-5.75,-54.21,-128.11,-131.48,-56.51
108.27,504.0,-13100.0,-11464.0,-6.53,-54.75,-131.19,-135.55,-55.99
108.35,490.0,-12186.0,-12454.0,-6.11,-53.97,-135.62,-139.56,-55.47
108.44,556.0,-11224.0,-26626.0,-1.97,-49.09,-157.14,-144.8,-40.21
108.52,580.0,-10258.0,-14148.0,-6.21,-54.29,-144.06,-148.76,-39.69
108.6,554.0,-9370.0,-14952.0,-6.23,-53.92,-147.93,-152.66,-39.18
108.68,548.0,-8508.0,-15544.0,-6.22,-53.51,-151.31,-156.41,-38.67
108.77,468.0,-7166.0,-16128.0,-6.08,-51.42,-156.04,-159.07,-23.06
108.86,516.0,-6496.0,-16660.0,-5.98,-51.14,-158.7,-162.88,-22.56
108.94,482.0,-5352.0,-16936.0,-6.47,-51.37,-162.46,-166.67,-22.05
109.02,500.0,-4072.0,-17322.0,-6.26,-50.87,-166.77,-170.45,-21.54
109.1,500.0,-2732.0,-17612.0,-6.11,-50.07,-171.18,-174.02,-6.72
109.19,504.0,-1424.0,-17620.0,-6.1,-49.87,-175.38,-177.8,-6.22
109.27,494.0,-328.0,-17848.0,-6.05,-49.66,-178.95,-181.53,-5.72
109.34,432.0,840.0,-17766.0,-6.08,-49.49,177.29,174.81,-5.24
109.42,470.0,1716.0,-17772.0,-6.3,-49.31,174.48,171.51,8.95
109.5,472.0,3230.0,-17370.0,-6.84,-49.63,169.47,167.9,9.46
109.58,478.0,4294.0,-17326.0,-6.09,-48.76,166.08,164.38,9.94
109.65,408.0,5160.0,-16984.0,-6.21,-48.74,163.1,160.92,10.4
109.73,446.0,6482.0,-16470.0,-6.08,-48.4,158.52,157.13,24.13
109.81,460.0,7146.0,-16076.0,-6.11,-48.33,156.03,153.64,24.61
109.89,436.0,8628.0,-15360.0,-6.17,-48.22,150.68,150.0,25.09
109.96,454.0,9480.0,-14788.0,-6.08,-48.08,147.34,146.39,25.57
110.05,418.0,10350.0,-14004.0,-6.16,-47.65,143.53,142.77,39.51
110.13,428.0,11152.0,-13372.0,-5.96,-47.41,140.17,139.14,40.0
110.21,416.0,12040.0,-12522.0,-6.34,-47.73,136.12,135.47,40.48
110.29,384.0,12922.0,-11572.0,-5.95,-47.3,131.85,131.78,40.95
110.37,380.0,13592.0,-10526.0,-6.16,-47.45,127.76,127.8,54.69
110.45,372.0,14266.0,-9644.0,-6.07,-47.36,124.06,124.1,55.2
110.53,338.0,14916.0,-8464.0,-6.07,-47.36,119.57,120.37,55.7
110.61,424.0,14892.0,-8108.0,-6.16,-47.51,118.57,116.87,56.2
110.69,304.0,15724.0,-6400.0,-5.61,-47.02,112.15,112.52,69.87
110.77,452.0,15848.0,-5820.0,-5.74,-47.17,110.17,108.97,70.33
110.85,438.0,15680.0,-4812.0,-5.81,-47.17,107.06,105.47,70.81
110.92,404.0,15968.0,-3570.0,-6.03,-47.28,102.6,101.89,71.3
111.01,344.0,16126.0,-2432.0,-5.95,-47.14,98.58,97.79,84.79
111.09,394.0,16184.0,-742.0,-6.27,-47.42,92.63,94.13,85.23
111.16,374.0,16184.0,-42.0,-5.85,-47.08,90.15,90.61,85.67
111.23,396.0,16060.0,908.0,-6.13,-47.39,86.76,87.14,86.1
111.31,384.0,15936.0,2088.0,-5.92,-47.33,82.54,83.23,81.09
111.39,378.0,15738.0,2956.0,-5.78,-47.24,79.36,79.71,80.64
111.46,386.0,15394.0,4026.0,-5.74,-47.22,75.34,76.15,80.17
111.53,406.0,15130.0,4790.0,-5.73,-47.27,72.43,72.63,79.69
111.61,370.0,14618.0,5896.0,-5.91,-47.5,68.03,68.88,67.23
111.68,362.0,14108.0,6796.0,-5.77,-47.43,64.28,65.28,66.77
111.76,366.0,13858.0,7390.0,-5.52,-47.25,61.93,61.8,66.31
111.83,382.0,13230.0,8300.0,-5.72,-47.44,57.9,58.26,65.84
111.91,418.0,12460.0,9150.0,-5.79,-47.64,53.71,54.33,53.29
111.98,384.0,11800.0,9880.0,-5.46,-47.35,50.06,50.76,52.83
112.06,364.0,11340.0,10334.0,-5.5,-47.45,47.66,47.3,52.37
112.13,428.0,10512.0,10980.0,-5.44,-47.36,43.75,43.75,51.9
112.22,428.0,9418.0,12158.0,-5.92,-48.26,37.76,38.99,38.96
112.29,348.0,8492.0,12590.0,-5.71,-48.12,34.0,35.33,38.47
112.37,386.0,7756.0,12928.0,-5.14,-47.63,30.96,31.75,38.0
112.44,352.0,6822.0,13610.0,-5.48,-48.02,26.62,28.08,37.49
112.52,364.0,6284.0,13722.0,-5.38,-48.09,24.61,24.25,24.76
112.59,364.0,5222.0,14014.0,-5.25,-47.94,20.44,20.69,24.3
112.67,370.0,4498.0,14434.0,-5.44,-48.15,17.31,17.15,23.82
112.74,390.0,2880.0,14702.0,-5.23,-47.92,11.08,13.39,23.37
112.82,406.0,1996.0,14888.0,-5.34,-48.4,7.64,9.29,10.74
112.89,394.0,1240.0,15132.0,-5.44,-48.61,4.68,5.71,10.29
112.96,448.0,270.0,14996.0,-5.14,-48.39,1.03,2.13,9.81
113.03,470.0,-396.0,15032.0,-5.05,-48.38,-1.51,-1.26,9.32
113.11,416.0,-1442.0,14808.0,-5.31,-48.71,-5.56,-5.12,-2.9
113.18,372.0,-2494.0,14810.0,-4.98,-48.4,-9.56,-8.81,-3.36
113.26,468.0,-3328.0,14606.0,-5.39,-48.87,-12.84,-12.5,-3.83
113.34,406.0,-4454.0,14254.0,-5.47,-48.97,-17.35,-16.37,-4.29
113.42,448.0,-5708.0,14036.0,-5.46,-49.0,-22.13,-20.47,-17.65
113.5,442.0,-6564.0,13732.0,-5.66,-49.31,-25.55,-24.43,-18.12
113.57,492.0,-7694.0,12994.0,-5.44,-49.17,-30.63,-28.48,-18.61
113.65,494.0,-8666.0,12644.0,-5.29,-49.19,-34.43,-32.52,-19.1
113.74,508.0,-9420.0,12016.0,-5.26,-49.51,-38.09,-37.17,-33.13
113.82,466.0,-9964.0,11600.0,-5.37,-49.68,-40.66,-41.02,-33.6
113.9,414.0,-10696.0,11232.0,-5.6,-49.88,-43.6,-44.8,-34.08
113.97,510.0,-11616.0,10312.0,-5.24,-49.44,-48.4,-48.68,-34.55
114.06,492.0,-12426.0,9456.0,-5.54,-49.57,-52.73,-52.66,-48.72
114.14,474.0,-13018.0,8592.0,-5.44,-49.47,-56.57,-56.52,-49.23
114.21,552.0,-13680.0,7882.0,-5.99,-50.03,-60.05,-60.4,-49.73
114.29,554.0,-14206.0,6876.0,-5.6,-49.6,-64.17,-64.26,-50.21
114.38,538.0,-15118.0,5584.0,-5.93,-50.19,-69.73,-68.9,-64.65
114.46,496.0,-15036.0,4968.0,-5.92,-50.22,-71.72,-72.73,-65.16
114.53,538.0,-15582.0,3622.0,-5.93,-50.17,-76.91,-76.67,-65.64
114.61,594.0,-15950.0,2752.0,-5.54,-49.8,-80.21,-80.53,-66.17
114.7,552.0,-16162.0,1930.0,-5.56,-49.6,-83.19,-84.42,-80.65
114.78,514.0,-16400.0,652.0,-6.08,-50.05,-87.72,-88.28,-81.13
114.85,602.0,-16480.0,-638.0,-6.01,-49.94,-92.22,-92.13,-81.62
114.93,558.0,-16354.0,-1414.0,-6.54,-50.48,-94.94,-95.97,-82.1
115.02,604.0,-16316.0,-2966.0,-5.86,-49.76,-100.3,-100.33,-82.38
115.1,580.0,-16464.0,-3838.0,-5.76,-49.66,-103.12,-104.27,-81.91
115.18,548.0,-15930.0,-4932.0,-6.05,-49.87,-107.2,-108.23,-81.42
115.26,534.0,-15500.0,-6694.0,-6.04,-49.79,-113.36,-112.38,-80.93
115.35,608.0,-15358.0,-7354.0,-6.15,-49.82,-115.59,-116.41,-65.64
115.43,584.0,-14898.0,-8508.0,-6.09,-49.71,-119.73,-120.39,-65.14
115.51,556.0,-14160.0,-9760.0,-5.98,-49.55,-124.58,-124.43,-64.61
115.59,574.0,-13782.0,-10558.0,-5.74,-49.32,-127.45,-128.35,-64.1
115.68,542.0,-13088.0,-11544.0,-6.58,-50.03,-131.41,-132.41,-48.75
115.76,572.0,-12236.0,-12294.0,-6.34,-49.72,-135.14,-136.37,-48.21
115.84,568.0,-11490.0,-13252.0,-5.98,-49.26,-139.07,-140.29,-47.69
115.92,554.0,-10420.0,-14194.0,-6.31,-49.48,-143.72,-144.3,-47.18
116.02,510.0,-9496.0,-14930.0,-6.67,-49.78,-147.54,-148.73,-31.21
116.1,568.0,-8314.0,-15758.0,-6.4,-49.43,-152.18,-152.7,-30.66
116.18,500.0,-7104.0,-16068.0,-6.38,-49.39,-156.15,-156.66,-30.12
116.26,508.0,-6328.0,-16508.0,-6.44,-49.41,-159.03,-160.53,-29.6
116.35,518.0,-4622.0,-17266.0,-6.5,-49.5,-165.01,-164.99,-14.05
116.43,514.0,-3578.0,-17576.0,-6.35,-49.35,-168.49,-168.95,-13.52
116.51,450.0,-1918.0,-17698.0,-6.52,-49.48,-173.81,-173.05,-12.99
116.59,472.0,-852.0,-17836.0,-6.55,-49.57,-177.27,-177.1,-12.47
116.67,496.0,910.0,-17846.0,-6.83,-49.68,177.08,178.74,3.01
116.75,474.0,1210.0,-17830.0,-6.34,-49.3,176.12,175.14,3.54
116.83,452.0,2458.0,-17600.0,-6.48,-49.38,172.05,171.45,4.02
116.9,434.0,3518.0,-17516.0,-6.65,-49.5,168.64,167.78,4.56
116.99,432.0,4548.0,-17192.0,-6.42,-49.36,165.18,163.62,19.1
117.06,444.0,6498.0,-16474.0,-6.59,-49.43,158.47,159.7,19.62
117.14,398.0,7304.0,-16034.0,-6.56,-49.49,155.51,155.85,20.16
117.22,452.0,7742.0,-15886.0,-6.63,-49.58,154.02,152.21,20.66
117.3,398.0,9346.0,-15020.0,-6.56,-49.61,148.11,147.66,35.69
117.38,416.0,10162.0,-14222.0,-6.6,-49.63,144.45,143.88,36.18
117.46,390.0,11180.0,-13180.0,-6.51,-49.51,139.69,139.99,36.7
117.54,418.0,12350.0,-12286.0,-6.72,-49.73,134.85,135.99,37.22
117.62,402.0,12862.0,-11498.0,-6.76,-49.8,131.8,131.74,52.2
117.7,434.0,14468.0,-10760.0,-6.56,-49.6,126.64,127.77,52.71
117.78,406.0,14400.0,-8872.0,-6.29,-49.4,121.64,123.73,53.2
117.86,458.0,14952.0,-8048.0,-6.78,-50.03,118.29,119.74,53.71
117.94,346.0,15340.0,-7066.0,-6.47,-50.09,114.73,115.07,68.78
118.02,390.0,15544.0,-5830.0,-6.94,-50.58,110.56,111.12,69.31
118.1,382.0,16204.0,-4266.0,-6.18,-49.86,104.75,107.08,69.83
118.18,374.0,16118.0,-3728.0,-6.27,-50.1,103.02,103.21,70.34
118.26,358.0,16308.0,-2358.0,-6.48,-50.57,98.23,98.51,85.25
118.34,374.0,16362.0,-982.0,-6.37,-50.48,93.43,94.63,85.74
118.41,362.0,16278.0,-204.0,-6.21,-50.39,90.72,90.9,86.23
118.49,370.0,16094.0,1020.0,-6.74,-50.93,86.37,87.08,86.71
118.56,364.0,15870.0,2414.0,-6.7,-51.03,81.35,82.94,78.99
118.64,362.0,15454.0,3692.0,-6.31,-50.74,76.56,78.97,78.47
118.71,450.0,15108.0,4328.0,-6.66,-51.26,74.01,75.08,77.95
118.78,350.0,14858.0,5456.0,-6.31,-50.99,69.84,71.17,77.44
118.86,400.0,14014.0,6818.0,-6.51,-51.45,64.06,66.71,63.4
118.94,414.0,13432.0,7694.0,-6.15,-51.26,60.2,62.69,62.88
119.01,360.0,12764.0,8788.0,-6.23,-51.53,55.45,58.57,62.36
119.08,396.0,12276.0,9358.0,-6.39,-51.92,52.68,54.55,61.84
119.16,400.0,12286.0,-258.0,-1.97,-47.94,91.2,53.46,47.83
119.24,382.0,10516.0,11182.0,-6.6,-50.01,43.24,49.21,47.28
119.31,348.0,9236.0,12004.0,-6.37,-50.21,37.58,44.73,46.75
119.39,362.0,8892.0,12310.0,-6.18,-50.56,35.84,40.52,46.25
119.46,398.0,7382.0,13092.0,-5.87,-51.11,29.42,35.41,31.9
119.54,412.0,6902.0,13634.0,-6.63,-52.3,26.85,31.11,31.37
119.61,386.0,6020.0,13754.0,-6.34,-52.35,23.64,26.9,30.84
119.68,406.0,4654.0,14230.0,-6.81,-53.07,18.11,22.5,30.32
119.76,372.0,3806.0,14508.0,-6.4,-53.56,14.7,17.36,15.82
119.84,396.0,2286.0,14748.0,-5.95,-53.3,8.81,13.01,15.29
119.91,408.0,1258.0,14948.0,-6.31,-53.96,4.81,8.69,14.77
119.98,406.0,554.0,14914.0,-5.93,-53.88,2.13,4.58,14.25
120.06,448.0,-784.0,15038.0,-6.55,-55.56,-2.98,-1.07,-0.24
120.13,422.0,-1994.0,14848.0,-6.03,-55.15,-7.65,-5.32,-0.77
120.21,416.0,-3160.0,14680.0,-6.44,-55.7,-12.15,-9.7,-1.3
120.29,428.0,-3956.0,14512.0,-6.16,-55.59,-15.25,-14.03,-1.85
120.37,466.0,-5842.0,14018.0,-6.48,-56.56,-22.62,-19.78,-16.93
120.45,446.0,-6128.0,13814.0,-6.3,-56.53,-23.92,-24.17,-17.48
120.53,512.0,-7714.0,13136.0,-5.92,-56.14,-30.42,-28.7,-18.0
120.61,504.0,-8076.0,12892.0,-6.18,-56.52,-32.06,-33.02,-18.55
120.69,508.0,-9366.0,12006.0,-6.15,-56.17,-37.96,-37.53,-34.17
120.77,506.0,-10596.0,11202.0,-6.31,-56.36,-43.41,-42.04,-34.71
120.85,530.0,-11480.0,10252.0,-5.99,-56.12,-48.23,-46.62,-35.23
120.93,540.0,-11936.0,10010.0,-6.01,-56.25,-50.02,-50.98,-35.77
121.01,518.0,-13042.0,8706.0,-6.05,-56.22,-56.28,-55.63,-51.44
121.09,516.0,-13614.0,7770.0,-6.36,-56.57,-60.29,-60.07,-51.96
121.17,554.0,-14160.0,6818.0,-6.15,-56.37,-64.29,-64.45,-52.48
121.24,576.0,-14970.0,5520.0,-6.45,-56.67,-69.76,-68.96,-53.03
121.33,564.0,-15374.0,4262.0,-6.1,-56.14,-74.51,-73.55,-68.93
121.41,548.0,-15494.0,3736.0,-5.86,-55.96,-76.44,-77.8,-69.46
121.48,518.0,-16050.0,2398.0,-6.41,-56.42,-81.5,-82.14,18.44
121.56,560.0,-16240.0,1336.0,-6.4,-56.36,-85.3,-86.37,10.98
121.65,546.0,-16472.0,256.0,-6.27,-55.87,-89.11,-90.73,-85.9
121.73,568.0,-16438.0,-922.0,-6.17,-55.67,-93.21,-94.88,-86.34
121.8,532.0,-16342.0,-2410.0,-6.55,-55.95,-98.39,-99.18,-86.76
121.88,600.0,-16138.0,-3692.0,-5.97,-55.32,-102.89,-103.49,-87.13
121.97,562.0,-16046.0,-5188.0,-6.7,-55.73,-107.92,-107.96,-75.65
122.05,608.0,-15700.0,-6212.0,-6.03,-55.05,-111.59,-112.37,-75.09
122.13,538.0,-15552.0,-7046.0,-6.78,-55.75,-114.37,-116.68,-74.54
122.21,576.0,-14944.0,-8256.0,-6.31,-55.1,-118.92,-120.94,-74.0
122.3,554.0,-14354.0,-9708.0,-6.62,-54.92,-124.07,-125.18,-57.61
122.38,610.0,-13680.0,-10688.0,-6.14,-54.37,-128.0,-129.46,-57.09
122.46,574.0,-12774.0,-11632.0,-6.93,-55.05,-132.32,-133.84,-56.54
122.55,526.0,-11910.0,-12620.0,-6.4,-54.4,-136.66,-138.15,-55.99
122.64,572.0,-11026.0,-13736.0,-6.65,-54.04,-141.25,-142.41,-39.18
122.72,556.0,-10048.0,-14284.0,-6.34,-53.66,-144.88,-146.67,-38.63
122.8,322.0,-9056.0,-15700.0,-6.78,-53.98,-150.02,-151.02,-38.09
122.88,552.0,-8138.0,-15904.0,-6.49,-53.62,-152.9,-155.16,-37.54
122.97,570.0,-6730.0,-16700.0,-6.94,-53.83,-158.05,-159.46,-21.23
123.05,454.0,-5794.0,-16554.0,-6.8,-53.59,-160.71,-163.53,-20.69
123.13,504.0,-4086.0,-17494.0,-6.56,-53.14,-166.85,-167.75,-20.14
123.21,472.0,-2948.0,-17528.0,-6.57,-53.08,-170.45,-171.9,-19.61
123.3,458.0,-1474.0,-17660.0,-6.83,-53.03,-175.23,-176.17,-3.42
123.38,438.0,-454.0,-17758.0,-6.6,-52.74,-178.54,-180.23,-2.89
123.46,476.0,1016.0,-17740.0,-6.75,-52.76,176.72,175.71,-2.37
123.53,466.0,1746.0,-17654.0,-6.99,-52.92,174.35,171.9,-1.82
123.62,462.0,3090.0,-17562.0,-6.88,-52.28,170.02,168.07,13.84
123.69,412.0,4310.0,-17266.0,-6.73,-52.0,165.98,164.22,14.35
123.77,434.0,6000.0,-16778.0,-6.94,-52.09,160.32,160.21,14.89
123.85,450.0,6850.0,-16300.0,-6.7,-51.85,157.21,156.31,15.43
123.94,454.0,7860.0,-15680.0,-6.86,-52.12,153.38,151.71,30.97
124.01,456.0,8932.0,-15168.0,-6.67,-51.84,149.51,147.85,31.5
124.09,378.0,10272.0,-14156.0,-7.03,-52.09,144.03,143.85,32.04
124.17,386.0,11072.0,-13338.0,-6.65,-51.7,140.3,139.86,32.58
124.26,418.0,12290.0,-12254.0,-6.82,-51.98,134.92,135.1,48.01
124.33,476.0,12684.0,-11634.0,-6.87,-52.04,132.53,131.14,48.55
124.41,402.0,14062.0,-9952.0,-6.93,-52.02,125.29,126.93,49.09
124.49,418.0,14216.0,-9502.0,-6.78,-51.98,123.76,123.0,49.62
124.58,414.0,14796.0,-8168.0,-6.87,-52.34,118.9,118.13,65.15
124.65,386.0,15306.0,-7066.0,-6.92,-52.35,114.78,114.14,65.68
124.73,370.0,15966.0,-5424.0,-6.57,-51.96,108.76,110.03,66.22
124.81,354.0,15986.0,-4830.0,-6.59,-52.06,106.81,106.09,66.74
124.9,360.0,16352.0,-2998.0,-6.77,-52.73,100.39,100.71,82.14
124.97,370.0,16486.0,-1918.0,-6.47,-52.44,96.64,96.66,82.65
125.05,380.0,16254.0,-722.0,-6.82,-52.79,92.54,92.69,83.17
125.12,342.0,16174.0,514.0,-6.39,-52.38,88.18,88.77,83.71
125.2,408.0,15922.0,1614.0,-7.5,-53.54,84.21,84.42,81.27
125.28,368.0,15612.0,2976.0,-6.66,-52.71,79.21,80.43,80.69
125.35,398.0,15338.0,4060.0,-6.5,-52.62,75.17,76.44,80.15
125.43,368.0,14876.0,5264.0,-6.49,-52.69,70.51,72.39,79.65
125.5,380.0,14476.0,5952.0,-7.06,-53.33,67.65,68.23,65.24
125.58,402.0,13942.0,7036.0,-6.79,-53.1,63.22,64.23,64.68
125.65,370.0,13232.0,8274.0,-6.25,-52.62,57.98,60.15,64.13
125.73,346.0,12586.0,8992.0,-6.61,-53.14,54.46,56.07,63.58
125.8,376.0,11604.0,10024.0,-6.45,-53.26,49.18,51.58,49.1
125.88,390.0,10604.0,11004.0,-6.6,-53.58,43.94,47.25,48.59
125.95,384.0,9874.0,11554.0,-6.14,-53.37,40.52,42.99,48.07
126.03,304.0,9446.0,11860.0,-7.05,-54.47,38.54,38.93,47.5
126.1,402.0,7996.0,12890.0,-6.64,-54.4,31.81,34.17,32.7
126.18,372.0,7026.0,13426.0,-6.29,-54.22,27.62,29.93,32.18
126.25,392.0,5702.0,13956.0,-6.23,-54.35,22.22,25.56,31.65
126.33,456.0,4674.0,14046.0,-6.15,-54.53,18.41,21.22,31.1
126.4,400.0,3584.0,14640.0,-6.64,-55.76,13.76,15.99,16.23
126.48,436.0,2630.0,14856.0,-6.23,-55.5,10.04,11.73,15.68
126.55,396.0,1496.0,14910.0,-6.51,-55.91,5.73,7.43,15.13
126.62,436.0,496.0,14958.0,-6.08,-55.61,1.9,3.29,14.59
126.7,418.0,-672.0,15082.0,-6.84,-56.98,-2.55,-1.88,-0.32
126.78,480.0,-2130.0,14750.0,-6.08,-56.26,-8.22,-6.19,-0.88
126.85,472.0,-3186.0,14568.0,-6.27,-56.57,-12.34,-10.58,-1.42
126.93,444.0,-4250.0,14458.0,-6.43,-56.85,-16.38,-15.07,-1.99
127.01,444.0,-5250.0,14154.0,-6.27,-57.18,-20.35,-20.4,-17.54
127.09,516.0,-7250.0,13356.0,-6.18,-57.09,-28.49,-25.13,-18.07
127.17,448.0,-7096.0,13478.0,-6.64,-57.76,-27.77,-29.48,-18.65
127.25,512.0,-8762.0,12530.0,-6.53,-57.53,-34.96,-34.06,-19.21
127.33,472.0,-9846.0,11584.0,-6.05,-57.35,-40.36,-39.32,-35.23
127.41,500.0,-10608.0,11256.0,-6.44,-57.81,-43.3,-43.79,-35.79
127.49,464.0,-11524.0,10256.0,-6.21,-57.54,-48.33,-48.34,-36.33
127.57,532.0,-12260.0,9596.0,-6.25,-57.59,-51.95,-52.81,-36.89
127.65,524.0,-13006.0,8662.0,-6.6,-57.64,-56.34,-57.21,-52.91
127.73,540.0,-14182.0,7136.0,-6.56,-57.54,-63.29,-61.83,-53.47
127.81,562.0,-14622.0,6068.0,-6.01,-57.09,-67.46,-66.39,-54.0
127.89,508.0,-15078.0,5474.0,-6.73,-57.89,-70.05,-70.83,-54.56
127.97,562.0,-15492.0,4036.0,-6.14,-57.36,-75.4,-75.86,-70.81
128.05,588.0,-15786.0,3146.0,-6.48,-57.67,-78.73,-80.23,-71.35
128.13,572.0,-16112.0,2010.0,-6.38,-57.47,-82.89,-84.55,-71.94
128.21,572.0,-16240.0,682.0,-6.34,-57.3,-87.6,-88.9,-72.51
128.29,550.0,-16472.0,-508.0,-6.68,-57.14,-91.77,-93.21,-87.53
128.37,626.0,-16452.0,-2052.0,-6.6,-56.98,-97.11,-97.62,-87.71
128.45,596.0,-16458.0,-2958.0,-6.38,-56.73,-100.19,-101.95,-87.75
128.53,542.0,-16110.0,-4780.0,-6.83,-57.06,-106.53,-106.58,-87.68
128.62,524.0,-15942.0,-5596.0,-6.53,-56.35,-109.34,-111.07,-72.27
128.7,610.0,-15576.0,-6790.0,-6.43,-56.15,-113.55,-115.48,-71.73
128.78,520.0,-15108.0,-7838.0,-6.58,-56.18,-117.42,-119.84,-71.2
128.87,542.0,-14534.0,-9212.0,-6.68,-56.12,-122.37,-124.22,-70.64
128.95,548.0,-13734.0,-10466.0,-6.5,-55.53,-127.31,-128.57,-53.88
129.03,576.0,-13050.0,-11368.0,-6.89,-55.84,-131.06,-133.0,-53.35
129.12,528.0,-12308.0,-12408.0,-6.79,-55.6,-135.23,-137.37,-52.82
129.2,582.0,-11060.0,-13438.0,-6.66,-55.31,-140.54,-141.79,-52.27
129.29,518.0,-9992.0,-14398.0,-6.32,-54.48,-145.24,-146.25,-35.07
129.37,540.0,-8728.0,-15392.0,-7.11,-55.21,-150.44,-150.71,-34.51
129.45,510.0,-7626.0,-15930.0,-6.44,-54.52,-154.42,-155.08,-33.96
129.53,578.0,-6534.0,-16556.0,-7.09,-55.13,-158.46,-159.47,-33.41
129.62,468.0,-5794.0,-16790.0,-7.19,-54.74,-160.96,-163.45,-16.67
129.7,498.0,-4744.0,-17212.0,-6.73,-54.12,-164.59,-167.57,-16.11
129.78,480.0,-2960.0,-17542.0,-6.83,-54.01,-170.42,-171.82,-15.57
129.86,490.0,-1720.0,-17762.0,-6.75,-53.82,-174.47,-176.03,-15.02
129.95,488.0,-16.0,-17866.0,-6.68,-53.58,-179.95,-180.43,1.52
130.03,484.0,894.0,-17992.0,-6.98,-53.84,177.16,175.59,2.06
130.1,428.0,2646.0,-17736.0,-7.0,-53.74,171.51,171.56,2.64
130.18,434.0,3180.0,-17320.0,-6.89,-53.63,169.6,167.7,3.21
130.26,456.0,5390.0,-17080.0,-6.71,-53.28,162.49,163.22,18.62
130.34,408.0,5950.0,-16618.0,-6.99,-53.61,160.3,159.19,19.16
130.41,420.0,7334.0,-16134.0,-6.99,-53.53,155.55,155.1,19.7
130.49,422.0,7936.0,-15686.0,-6.95,-53.45,153.16,151.19,20.27
130.58,424.0,9476.0,-14786.0,-6.7,-53.01,147.35,146.69,36.14
130.65,390.0,10564.0,-13756.0,-7.05,-53.32,142.48,142.58,36.68
130.73,392.0,11500.0,-13030.0,-6.59,-52.86,138.57,138.46,37.23
130.81,396.0,12100.0,-12358.0,-7.22,-53.49,135.6,134.39,37.77
130.9,444.0,12894.0,-11264.0,-6.85,-52.89,131.14,130.04,53.57
130.98,384.0,14028.0,-9982.0,-7.02,-52.99,125.43,125.86,54.13
131.05,392.0,14250.0,-9422.0,-6.94,-52.93,123.47,121.92,54.7
131.13,396.0,14928.0,-7918.0,-7.12,-53.01,117.94,117.84,55.27
131.22,408.0,15378.0,-6878.0,-7.18,-53.07,114.1,113.35,71.07
131.29,382.0,15822.0,-5394.0,-7.06,-52.91,108.83,109.24,71.64
131.37,384.0,16036.0,-4150.0,-6.95,-52.83,104.51,105.12,72.2
131.45,382.0,16490.0,-2462.0,-6.85,-52.77,98.49,100.84,72.75
131.53,332.0,16298.0,-1170.0,-6.49,-52.74,94.11,96.3,87.62
131.6,386.0,16188.0,-294.0,-7.15,-53.55,91.04,92.18,88.12
131.68,364.0,16264.0,1426.0,-6.83,-53.32,84.99,87.95,88.56
131.75,324.0,15978.0,2136.0,-6.69,-53.41,82.39,83.85,88.88
131.83,362.0,15534.0,3486.0,-7.02,-53.94,77.35,79.42,75.76
131.9,372.0,15190.0,4524.0,-6.77,-53.85,73.42,75.25,75.22
131.97,360.0,14612.0,5774.0,-6.51,-53.74,68.44,71.01,74.7
132.05,376.0,14380.0,6300.0,-6.86,-54.3,66.34,66.94,74.15
132.13,388.0,13442.0,7556.0,-6.46,-54.18,60.66,62.23,59.45
132.2,388.0,12842.0,8556.0,-6.47,-54.3,56.33,58.05,58.93
132.28,382.0,12074.0,9686.0,-6.73,-54.69,51.26,53.75,58.39
132.35,412.0,11522.0,10184.0,-7.18,-55.33,48.53,49.56,57.84
132.43,412.0,10320.0,11332.0,-6.36,-54.87,42.32,44.7,43.06
132.5,390.0,9572.0,11732.0,-6.47,-55.16,39.21,40.44,42.53
132.58,378.0,8428.0,12720.0,-6.84,-55.62,33.53,36.06,41.98
132.65,404.0,6872.0,13390.0,-6.43,-55.41,27.17,31.49,41.44
132.73,404.0,6434.0,13608.0,-6.6,-56.03,25.31,26.91,26.38
132.8,406.0,5670.0,13972.0,-7.12,-56.68,22.09,22.67,25.82
132.87,386.0,4172.0,14382.0,-6.95,-56.55,16.18,18.26,25.25
132.95,366.0,2750.0,14756.0,-6.24,-56.01,10.56,13.76,24.71
133.03,376.0,1974.0,14750.0,-6.83,-57.02,7.62,8.98,9.64
133.1,370.0,654.0,15072.0,-6.59,-56.87,2.48,4.75,9.05
133.17,382.0,-128.0,15014.0,-7.28,-57.73,-0.49,0.62,8.47
133.24,396.0,-1808.0,14888.0,-6.82,-57.36,-6.92,-3.81,7.91
133.31,438.0,-2276.0,14886.0,-6.01,-56.89,-8.69,-8.35,-6.63
133.39,500.0,-4082.0,14598.0,-6.22,-57.13,-15.62,-12.9,-7.17
133.47,392.0,-4598.0,14432.0,-6.83,-57.95,-17.67,-17.39,-7.78
133.54,436.0,-6166.0,13664.0,-6.44,-57.58,-24.29,-22.07,-8.36
133.62,482.0,-7138.0,13474.0,-6.43,-57.81,-27.91,-26.94,-24.12
133.7,494.0,-8092.0,12840.0,-6.62,-58.07,-32.22,-31.54,-24.71
133.78,502.0,-9378.0,12016.0,-6.14,-57.63,-37.97,-36.21,-25.28
133.86,402.0,-9812.0,11514.0,-6.56,-58.2,-40.44,-40.72,-25.81
133.94,502.0,-10980.0,10820.0,-6.47,-58.17,-45.42,-45.77,-42.12
134.02,502.0,-11960.0,9914.0,-6.17,-57.85,-50.34,-50.34,-42.67
134.1,488.0,-12512.0,9110.0,-6.3,-57.98,-53.94,-54.79,-43.22
134.18,482.0,-13760.0,7854.0,-6.77,-58.4,-60.28,-59.43,-43.76
134.26,550.0,-14144.0,6858.0,-6.31,-58.05,-64.13,-64.41,-60.13
134.34,520.0,-15080.0,5430.0,-6.68,-58.4,-70.2,-69.07,-60.69
134.42,500.0,-15476.0,4344.0,-6.34,-58.14,-74.32,-73.67,-61.24
134.5,572.0,-15694.0,3388.0,-6.43,-58.27,-77.82,-78.18,-61.79
134.58,502.0,-15952.0,2312.0,-6.57,-58.04,-81.75,-82.63,-78.15
134.66,586.0,-16202.0,1426.0,-6.6,-58.02,-84.97,-86.99,-78.69
134.74,490.0,-16486.0,-176.0,-6.56,-57.85,-90.61,-91.43,-79.24
134.82,696.0,-16348.0,-1712.0,-6.27,-57.5,-95.98,-95.92,-79.77
134.9,526.0,-16524.0,-2498.0,-6.75,-57.52,-98.6,-100.07,-83.13
134.98,648.0,-16254.0,-4248.0,-6.52,-57.2,-104.65,-104.65,-82.59
135.06,542.0,-16034.0,-5430.0,-6.68,-57.36,-108.71,-109.26,-82.06
135.15,614.0,-15794.0,-6522.0,-6.32,-56.95,-112.44,-113.75,-81.53
135.23,544.0,-15244.0,-7536.0,-6.84,-56.9,-116.31,-118.05,-64.63
135.32,588.0,-14592.0,-8844.0,-6.6,-56.55,-121.22,-122.53,-64.08
135.4,560.0,-14058.0,-9968.0,-6.86,-56.72,-125.34,-126.98,-63.52
135.48,540.0,-13398.0,-10906.0,-6.84,-56.58,-129.15,-131.35,-62.97
135.56,600.0,-12412.0,-12130.0,-6.8,-56.19,-134.34,-135.77,-46.06
135.65,492.0,-11930.0,-12682.0,-7.2,-56.48,-136.75,-140.07,-45.49
135.73,572.0,-10728.0,-13888.0,-6.6,-55.61,-142.32,-144.42,-44.92
135.81,484.0,-9500.0,-14892.0,-7.33,-56.17,-147.47,-148.89,-44.36
135.9,530.0,-8418.0,-15606.0,-6.94,-55.29,-151.66,-153.41,-26.91
135.98,478.0,-7180.0,-16226.0,-6.86,-55.11,-156.13,-157.75,-26.37
136.07,548.0,-5368.0,-16938.0,-6.72,-54.87,-162.42,-162.23,-25.82
136.15,430.0,-4534.0,-17132.0,-7.19,-55.35,-165.18,-166.59,-25.28
136.23,516.0,-3150.0,-17498.0,-6.79,-54.77,-169.79,-170.97,-8.44
136.31,436.0,-1602.0,-17798.0,-7.49,-55.38,-174.86,-175.37,-7.9
136.39,494.0,-692.0,-17704.0,-6.82,-54.67,-177.76,-179.56,-7.35
136.47,440.0,1056.0,-17856.0,-7.12,-54.83,176.62,176.15,-6.81
136.55,428.0,1958.0,-17704.0,-7.34,-54.84,173.69,172.17,9.38
136.63,476.0,3404.0,-17586.0,-7.25,-54.64,169.05,168.11,9.96
136.7,468.0,4276.0,-17296.0,-7.02,-54.33,166.11,164.2,10.49
136.78,468.0,5832.0,-16686.0,-7.24,-54.39,160.73,160.08,11.05
136.86,424.0,6768.0,-16368.0,-7.21,-54.13,157.54,156.03,26.72
136.94,478.0,8078.0,-15696.0,-7.15,-53.96,152.77,151.95,27.27
137.02,468.0,9410.0,-14778.0,-6.98,-53.73,147.51,147.78,27.83
137.09,418.0,10200.0,-14104.0,-7.12,-53.9,144.13,143.68,28.39
137.18,402.0,11636.0,-13062.0,-6.76,-53.58,138.3,139.19,44.41
137.26,414.0,12064.0,-12408.0,-7.16,-54.03,135.81,135.03,44.94
137.34,336.0,13558.0,-10766.0,-6.79,-53.61,128.45,130.64,45.51
137.42,398.0,13924.0,-9878.0,-7.12,-54.1,125.35,126.32,46.08
137.5,430.0,14286.0,-9312.0,-7.04,-54.44,123.1,121.45,62.1
137.58,404.0,14970.0,-7818.0,-7.18,-54.48,117.58,117.28,62.64
137.65,404.0,15400.0,-6754.0,-6.68,-53.96,113.68,113.16,63.2
137.73,294.0,16182.0,-4866.0,-7.08,-54.32,106.74,108.78,63.75
137.81,410.0,16132.0,-3928.0,-6.53,-53.94,103.68,104.38,79.04
137.89,364.0,16242.0,-2594.0,-6.96,-54.43,99.07,100.08,79.59
137.96,348.0,16352.0,-1222.0,-6.56,-54.11,94.27,95.81,80.14
138.04,416.0,16286.0,-526.0,-7.07,-54.73,91.85,91.73,80.68
138.12,338.0,16200.0,1314.0,-6.8,-54.84,85.36,86.66,83.86
138.19,368.0,15962.0,2180.0,-6.59,-54.71,82.22,82.58,83.35
138.27,400.0,15674.0,3190.0,-7.03,-55.18,78.5,78.5,82.78
138.34,350.0,15090.0,4624.0,-6.84,-54.99,72.96,74.31,82.2
138.42,324.0,14972.0,5686.0,-6.7,-55.07,69.2,69.89,67.42
138.49,394.0,14336.0,6304.0,-6.96,-55.38,66.26,65.85,66.87
138.57,366.0,13472.0,7580.0,-6.52,-54.91,60.64,61.68,66.32
138.64,316.0,12914.0,8468.0,-6.58,-55.05,56.75,57.53,65.77
138.72,342.0,12112.0,9726.0,-6.88,-55.7,51.24,52.65,50.84
138.79,332.0,10934.0,10716.0,-6.69,-55.61,45.58,48.29,50.29
138.87,392.0,10558.0,11124.0,-6.54,-55.66,43.5,44.06,49.75
138.94,340.0,9530.0,12016.0,-7.34,-56.5,38.42,39.69,49.21
139.02,400.0,8328.0,12726.0,-6.72,-56.19,33.2,34.96,34.13
139.09,342.0,7708.0,12838.0,-6.56,-56.16,30.98,30.83,33.56
139.17,374.0,6192.0,13762.0,-6.73,-56.32,24.22,26.43,33.0
139.24,396.0,4866.0,14342.0,-7.15,-56.91,18.74,21.89,32.43
139.32,388.0,4338.0,14290.0,-6.4,-56.63,16.89,17.16,17.22
139.39,388.0,2862.0,14714.0,-6.69,-56.93,11.01,12.78,16.67
139.47,372.0,1574.0,14982.0,-6.93,-57.3,6.0,8.31,16.09
139.54,376.0,456.0,14968.0,-6.54,-57.09,1.74,3.99,15.53
139.62,414.0,-888.0,14872.0,-6.1,-57.28,-3.42,-1.36,0.3
139.69,382.0,-1860.0,14988.0,-6.58,-57.88,-7.07,-5.68,-0.28
139.77,462.0,-3230.0,14790.0,-6.79,-58.17,-12.32,-10.21,-0.85
139.84,452.0,-4128.0,14508.0,-6.58,-58.11,-15.88,-14.78,-1.42
139.93,438.0,-5712.0,13972.0,-6.68,-58.68,-22.24,-20.36,-17.35
140.01,470.0,-6976.0,13336.0,-6.41,-58.53,-27.61,-25.13,-17.9
140.08,486.0,-7168.0,13382.0,-6.76,-59.04,-28.18,-29.61,-18.48
140.16,476.0,-8594.0,12748.0,-6.73,-58.91,-33.99,-34.19,-19.07
140.25,512.0,-9554.0,11846.0,-6.46,-58.91,-38.89,-39.49,-35.49
140.32,520.0,-10992.0,10864.0,-6.52,-58.94,-45.34,-44.19,-36.05
140.4,504.0,-11736.0,9984.0,-6.17,-58.66,-49.61,-48.89,-36.61
140.48,526.0,-12366.0,9430.0,-6.64,-59.19,-52.67,-53.44,-37.19
140.57,514.0,-13472.0,8026.0,-6.24,-58.85,-59.22,-58.67,-53.6
140.64,536.0,-13872.0,7406.0,-6.59,-59.23,-61.9,-63.18,-54.15
140.72,536.0,-14372.0,6584.0,-6.6,-59.16,-65.39,-67.6,-54.73
140.8,530.0,-15036.0,5128.0,-6.58,-58.98,-71.17,-72.11,-55.33
140.89,558.0,-15672.0,3700.0,-6.93,-58.81,-76.72,-76.54,-71.92
140.96,552.0,-15874.0,2810.0,-6.41,-58.3,-79.96,-81.0,-72.5
141.04,520.0,-16148.0,1802.0,-6.5,-58.32,-83.63,-85.39,-73.05
141.12,590.0,-16414.0,12.0,-6.99,-58.68,-89.96,-89.97,-73.64
141.21,598.0,-16478.0,-822.0,-6.4,-57.85,-92.86,-94.47,-87.72
141.28,536.0,-16524.0,-2114.0,-6.87,-58.23,-97.29,-98.89,-87.55
141.36,642.0,-16078.0,-3884.0,-6.27,-57.52,-103.58,-103.45,-87.28
141.44,634.0,-16060.0,-5404.0,-6.87,-58.14,-108.6,-108.22,-86.91
141.54,520.0,-15634.0,-5946.0,-6.85,-57.44,-110.82,-112.43,-70.51
141.62,578.0,-15416.0,-7102.0,-6.76,-57.26,-114.74,-116.91,-69.96
141.7,572.0,-14864.0,-8484.0,-7.02,-57.38,-119.72,-121.43,-69.41
141.78,596.0,-14146.0,-9690.0,-6.75,-57.0,-124.41,-125.92,-68.83
141.87,606.0,-13402.0,-11012.0,-6.61,-56.58,-129.41,-130.51,-51.89
141.95,522.0,-12676.0,-11790.0,-6.89,-56.79,-132.93,-135.0,-51.35
142.03,534.0,-11608.0,-13152.0,-6.43,-56.18,-138.57,-139.53,-50.78
142.11,514.0,-11026.0,-13634.0,-7.07,-56.75,-141.04,-143.9,-50.21
142.2,580.0,-9504.0,-14798.0,-7.08,-55.79,-147.29,-148.02,-32.79
142.29,552.0,-8568.0,-15412.0,-6.89,-55.56,-150.93,-152.41,-32.19
142.37,516.0,-7228.0,-15968.0,-7.13,-55.7,-155.65,-156.83,-31.61
142.45,536.0,-6388.0,-16714.0,-6.76,-55.24,-159.08,-161.12,-31.01
142.53,474.0,-4528.0,-17164.0,-7.09,-55.42,-165.22,-165.84,-14.1
142.62,508.0,-3830.0,-17480.0,-6.81,-55.09,-167.64,-170.09,-13.54
142.7,484.0,-2358.0,-17634.0,-6.87,-54.98,-172.38,-174.36,-12.97
142.78,492.0,-934.0,-17744.0,-6.89,-54.84,-176.99,-178.65,-12.42
142.86,464.0,450.0,-17880.0,-6.96,-54.43,178.56,177.3,4.25
142.94,424.0,1930.0,-17744.0,-6.61,-54.0,173.79,173.3,4.82
143.02,484.0,2742.0,-17494.0,-7.49,-54.84,171.09,169.31,5.39
143.09,450.0,4150.0,-17206.0,-7.01,-54.22,166.44,165.31,5.94
143.17,396.0,5698.0,-16840.0,-7.24,-54.3,161.31,160.94,21.54
143.25,424.0,7040.0,-16378.0,-6.98,-54.01,156.74,156.77,22.11
143.33,404.0,7704.0,-15826.0,-7.12,-54.15,154.04,152.72,22.67
143.41,396.0,9374.0,-14758.0,-6.77,-53.71,147.58,148.49,23.23
143.49,384.0,10438.0,-14076.0,-7.26,-54.33,143.44,143.68,39.26
143.57,402.0,11198.0,-13356.0,-6.89,-53.97,140.02,139.51,39.82
143.65,346.0,12352.0,-12226.0,-7.18,-54.22,134.71,135.23,40.36
143.73,404.0,12646.0,-11654.0,-7.21,-54.3,132.66,131.13,40.93
143.81,480.0,13420.0,-10686.0,-7.08,-54.11,128.53,126.59,56.96
143.89,420.0,14172.0,-9582.0,-7.05,-53.96,124.06,122.51,57.51
143.97,356.0,14910.0,-7992.0,-6.96,-53.77,118.19,118.35,58.07
144.04,322.0,15290.0,-7056.0,-7.3,-54.12,114.77,114.23,58.62
144.13,384.0,15912.0,-4978.0,-7.05,-53.82,107.37,109.35,74.55
144.21,342.0,16248.0,-4188.0,-6.84,-53.71,104.45,105.16,75.11
144.29,414.0,16148.0,-2860.0,-6.9,-53.82,100.04,100.94,75.64
144.36,384.0,16296.0,-1584.0,-6.91,-53.88,95.55,96.68,76.18
144.44,392.0,16214.0,-512.0,-6.85,-54.0,91.81,92.35,88.18
144.52,410.0,16152.0,1084.0,-7.31,-54.49,86.16,88.14,87.7
144.59,372.0,15982.0,2296.0,-7.18,-54.51,81.82,83.91,87.19
144.66,366.0,15656.0,3248.0,-6.49,-53.97,78.28,79.77,86.7
144.74,366.0,15206.0,4610.0,-6.92,-54.67,73.13,75.2,71.97
144.81,388.0,14680.0,5728.0,-6.67,-54.58,68.68,70.94,71.41
144.89,360.0,14346.0,6524.0,-6.92,-54.99,65.55,66.75,70.86
144.96,396.0,13782.0,7482.0,-6.6,-54.78,61.5,62.59,70.31
145.04,354.0,12772.0,8710.0,-6.55,-55.29,55.71,57.48,55.47
145.11,414.0,11974.0,9566.0,-6.81,-55.67,51.38,53.19,54.91
145.19,422.0,11544.0,10116.0,-7.3,-56.29,48.77,49.01,54.33
145.26,386.0,10162.0,11460.0,-6.53,-55.55,41.56,44.53,53.75
145.34,416.0,9348.0,11674.0,-6.76,-56.1,38.69,39.98,38.86
145.42,368.0,8224.0,12918.0,-6.83,-56.26,32.48,35.51,38.26
145.49,402.0,6878.0,13386.0,-6.56,-56.23,27.2,30.96,37.68
145.56,370.0,6426.0,13612.0,-6.66,-56.63,25.27,26.63,37.09
145.64,416.0,4858.0,14224.0,-7.22,-57.58,18.86,21.49,21.83
145.72,368.0,3806.0,14602.0,-6.43,-56.97,14.61,17.04,21.24
145.79,358.0,3232.0,14684.0,-6.51,-57.23,12.41,12.78,20.72
145.86,390.0,1784.0,14866.0,-7.08,-57.83,6.84,8.35,20.13
145.94,436.0,370.0,14980.0,-6.57,-57.63,1.41,3.5,4.78
146.01,402.0,-476.0,15114.0,-6.55,-57.74,-1.8,-0.62,4.24
146.08,398.0,-1466.0,14810.0,-6.41,-57.69,-5.65,-4.89,3.68
146.16,428.0,-2768.0,14750.0,-7.15,-58.49,-10.63,-9.33,3.11
146.24,512.0,-4330.0,14426.0,-6.6,-58.52,-16.71,-15.0,-12.39
146.32,468.0,-5000.0,14248.0,-6.65,-58.67,-19.34,-19.56,-12.96
146.4,388.0,-6028.0,13930.0,-6.69,-58.7,-23.4,-24.08,-13.53
146.47,476.0,-7682.0,13002.0,-6.04,-58.0,-30.58,-28.78,-14.08
146.56,448.0,-8728.0,12636.0,-6.76,-59.32,-34.63,-34.4,-30.67
146.64,476.0,-10044.0,11692.0,-6.31,-58.89,-40.66,-39.13,-31.24
146.72,450.0,-10510.0,11210.0,-6.58,-59.25,-43.15,-43.76,-31.79
146.8,496.0,-11596.0,10254.0,-6.35,-58.98,-48.51,-48.43,-32.34
146.88,564.0,-12380.0,9406.0,-6.65,-59.22,-52.77,-53.26,-48.8
146.96,546.0,-13616.0,7964.0,-6.53,-59.07,-59.68,-58.02,-49.38
147.04,528.0,-13786.0,7394.0,-6.55,-59.2,-61.79,-62.57,-49.95
147.11,524.0,-14052.0,7096.0,-6.7,-59.3,-63.21,-66.82,-50.51
147.2,528.0,-15118.0,5204.0,-6.58,-58.78,-71.01,-71.65,-67.14
147.28,534.0,-15484.0,4174.0,-6.98,-59.14,-74.91,-76.16,-67.71
147.36,572.0,-16016.0,2502.0,-6.54,-58.62,-81.12,-80.77,-68.3
147.43,556.0,-16182.0,1840.0,-6.4,-58.5,-83.51,-85.17,-68.86
147.52,600.0,-16370.0,42.0,-6.97,-58.84,-89.85,-90.05,-85.14
147.59,542.0,-16452.0,-978.0,-6.33,-58.18,-93.4,-94.38,-85.64
147.67,570.0,-16596.0,-2038.0,-6.81,-58.6,-97.0,-98.78,-86.11
147.75,598.0,-16142.0,-3934.0,-6.27,-57.93,-103.7,-103.4,-86.57
147.84,602.0,-16058.0,-5342.0,-6.96,-58.48,-108.4,-108.25,-75.61
147.92,626.0,-15884.0,-6090.0,-6.55,-58.08,-110.98,-112.8,-75.03
148.0,626.0,-15310.0,-7476.0,-6.88,-58.27,-116.03,-117.4,-74.47
148.08,612.0,-14982.0,-8442.0,-7.04,-58.33,-119.4,-121.88,-73.88
148.17,540.0,-14212.0,-9658.0,-6.76,-57.51,-124.2,-126.21,-56.73
148.25,558.0,-13336.0,-10868.0,-6.87,-57.49,-129.18,-130.73,-56.15
148.33,554.0,-12696.0,-11682.0,-7.02,-57.52,-132.62,-135.2,-55.56
148.41,522.0,-11636.0,-13068.0,-6.62,-56.92,-138.32,-139.74,-54.99
148.51,560.0,-10468.0,-14206.0,-6.78,-56.56,-143.61,-144.39,-37.33
148.59,550.0,-9584.0,-14680.0,-7.12,-56.86,-146.86,-148.89,-36.78
148.67,540.0,-8646.0,-15364.0,-6.96,-56.57,-150.63,-153.25,-36.22
148.75,488.0,-6988.0,-16396.0,-7.21,-56.63,-156.92,-157.77,-35.66
148.84,494.0,-6218.0,-16524.0,-7.04,-55.94,-159.38,-161.8,-18.51
148.92,528.0,-4496.0,-17164.0,-7.13,-55.88,-165.32,-166.25,-17.95
149.0,496.0,-3104.0,-17656.0,-6.79,-55.47,-170.03,-170.7,-17.39
149.08,470.0,-2402.0,-17668.0,-7.22,-55.85,-172.26,-174.95,-16.82
149.17,456.0,-410.0,-17870.0,-6.82,-55.2,-178.69,-179.47,0.13
149.24,484.0,542.0,-17840.0,-7.08,-55.41,178.26,176.4,0.67
149.32,486.0,1878.0,-17686.0,-6.58,-54.76,173.94,172.46,1.22
149.39,472.0,3332.0,-17478.0,-7.67,-55.73,169.21,168.32,1.76
149.48,454.0,4758.0,-17150.0,-6.7,-54.55,164.49,164.12,17.36
149.55,442.0,5670.0,-16740.0,-7.18,-55.0,161.29,160.01,17.91
149.63,472.0,6908.0,-16272.0,-6.86,-54.58,157.0,155.92,18.45
149.71,448.0,7492.0,-15894.0,-7.08,-54.71,154.76,152.0,18.98
149.8,446.0,8880.0,-15160.0,-6.71,-53.84,149.64,147.72,34.77
149.87,382.0,10470.0,-14026.0,-7.24,-54.26,143.26,143.52,35.3
149.95,464.0,11212.0,-13332.0,-6.63,-53.68,139.94,139.37,35.84
150.03,362.0,12052.0,-12460.0,-7.07,-54.07,135.95,135.21,36.35
150.11,420.0,12718.0,-11600.0,-6.73,-53.45,132.37,131.05,51.83
150.19,322.0,13958.0,-10058.0,-7.18,-53.83,125.78,126.76,52.36
150.27,372.0,14480.0,-8890.0,-6.4,-53.12,121.55,122.52,52.88
150.35,376.0,14906.0,-8256.0,-6.9,-53.68,118.98,118.43,53.4
150.44,420.0,15274.0,-7040.0,-6.52,-53.28,114.75,113.87,68.72
150.51,412.0,15630.0,-6094.0,-6.95,-53.66,111.3,109.84,69.26
150.59,390.0,16066.0,-4282.0,-6.23,-52.85,104.92,105.7,69.78
150.67,362.0,16208.0,-3726.0,-6.27,-52.94,102.95,101.73,70.29
150.76,384.0,16236.0,-2386.0,-6.49,-52.92,98.36,97.29,85.23
150.83,388.0,16468.0,-886.0,-6.35,-52.73,93.08,93.32,85.71
150.9,396.0,16206.0,-84.0,-6.25,-52.64,90.3,89.5,86.2
150.98,360.0,16126.0,1172.0,-6.27,-52.61,85.84,85.68,86.68
151.05,354.0,15820.0,2374.0,-6.58,-52.92,81.47,81.61,79.17
151.13,408.0,15534.0,3780.0,-6.09,-52.44,76.32,77.62,78.65
151.2,350.0,15200.0,4474.0,-6.35,-52.8,73.6,73.71,78.15
151.28,346.0,14728.0,5630.0,-6.08,-52.54,69.08,69.76,77.65
151.35,364.0,14282.0,6380.0,-6.43,-52.95,65.93,65.61,63.91
151.43,358.0,13852.0,7398.0,-6.09,-52.6,61.89,61.74,63.4
151.5,350.0,13268.0,8212.0,-6.4,-52.9,58.25,57.87,62.89
151.58,360.0,12290.0,9366.0,-6.15,-52.62,52.69,53.86,62.39
151.65,386.0,11524.0,10176.0,-5.91,-52.56,48.55,49.61,48.78
151.73,344.0,10890.0,10842.0,-6.09,-52.83,45.13,45.6,48.3
151.8,406.0,9912.0,11586.0,-5.62,-52.39,40.55,41.57,47.78
151.88,338.0,9164.0,12078.0,-6.11,-52.97,37.19,37.61,47.25
151.95,398.0,7936.0,12904.0,-6.17,-53.12,31.59,33.29,33.45
152.03,410.0,6904.0,13358.0,-6.35,-53.43,27.33,29.15,32.94
152.1,412.0,6116.0,13808.0,-6.06,-53.28,23.89,25.09,32.44
152.17,376.0,5586.0,14012.0,-6.5,-53.83,21.74,21.18,31.96
152.25,384.0,3998.0,14506.0,-5.99,-53.52,15.41,16.51,18.11
152.33,412.0,2648.0,14774.0,-5.76,-53.37,10.16,12.35,17.63
152.4,352.0,1790.0,14728.0,-5.98,-53.75,6.93,8.25,17.12
152.47,394.0,1046.0,14940.0,-5.82,-53.69,4.0,4.36,16.6
152.55,414.0,-22.0,14966.0,-5.66,-53.58,-0.08,0.09,2.91
152.62,452.0,-1042.0,14960.0,-5.8,-53.72,-3.98,-3.72,2.43
152.7,432.0,-2104.0,14862.0,-5.53,-53.47,-8.06,-7.69,1.89
152.77,478.0,-3076.0,14656.0,-5.86,-53.83,-11.85,-11.68,1.35
152.85,418.0,-4222.0,14462.0,-5.79,-53.68,-16.27,-16.05,-12.39
152.93,478.0,-5022.0,14110.0,-5.73,-53.63,-19.59,-20.18,-12.89
153.01,454.0,-6392.0,13632.0,-5.79,-53.66,-25.12,-24.43,-13.4
153.09,434.0,-7342.0,13416.0,-5.8,-53.71,-28.69,-28.63,-13.9
153.17,490.0,-8132.0,12744.0,-5.86,-53.62,-32.54,-32.96,-28.54
153.25,434.0,-8982.0,12350.0,-5.53,-53.26,-36.03,-37.03,-29.03
153.33,502.0,-9996.0,11452.0,-5.74,-53.4,-41.12,-41.19,-29.54
153.41,524.0,-10920.0,10898.0,-5.66,-53.31,-45.06,-45.32,-30.04
153.49,506.0,-11634.0,10160.0,-5.35,-52.89,-48.87,-49.59,-44.52
153.57,480.0,-12118.0,9586.0,-5.66,-53.16,-51.65,-53.62,-44.99
153.65,498.0,-13064.0,8744.0,-5.27,-52.63,-56.2,-57.59,-45.51
153.73,500.0,-13602.0,7984.0,-6.12,-53.37,-59.59,-61.55,-46.03
153.81,550.0,-14320.0,6676.0,-5.76,-52.61,-65.01,-65.67,-60.71
153.89,568.0,-15100.0,5336.0,-5.98,-52.79,-70.54,-69.85,-61.22
153.97,500.0,-15122.0,5204.0,-5.98,-52.84,-71.01,-73.72,-61.7
154.04,548.0,-15632.0,3586.0,-5.8,-52.46,-77.08,-77.75,-62.2
154.13,570.0,-15988.0,2846.0,-5.69,-51.96,-79.91,-81.6,-76.8
154.21,564.0,-16092.0,2006.0,-5.39,-51.56,-82.89,-85.41,-77.29
154.29,602.0,-16304.0,648.0,-5.76,-51.77,-87.72,-89.3,-77.8
154.36,598.0,-16418.0,-646.0,-5.82,-51.71,-92.25,-93.19,-78.3
154.45,504.0,-16318.0,-1634.0,-6.32,-51.45,-95.72,-96.72,-86.32
154.53,592.0,-16446.0,-2918.0,-5.82,-50.89,-100.06,-100.69,-85.89
154.61,560.0,-16258.0,-4324.0,-5.58,-50.61,-104.89,-104.82,-85.48
154.69,596.0,-16162.0,-4864.0,-5.76,-50.79,-106.75,-108.76,-85.06
154.78,594.0,-15892.0,-5676.0,-5.81,-50.41,-109.65,-112.49,-70.64
154.86,584.0,-15418.0,-7138.0,-5.89,-50.3,-114.84,-116.43,-70.15
154.94,562.0,-14888.0,-8166.0,-5.71,-50.02,-118.74,-120.34,-69.68
155.02,542.0,-14616.0,-9078.0,-5.89,-50.07,-121.84,-124.17,-69.22
155.11,596.0,-13908.0,-10232.0,-5.6,-49.31,-126.34,-127.93,-54.66
155.19,564.0,-13192.0,-11168.0,-5.57,-49.18,-130.25,-131.83,-54.19
155.27,516.0,-12516.0,-11986.0,-5.79,-49.28,-133.76,-135.69,-53.72
155.36,564.0,-11902.0,-12676.0,-5.63,-48.97,-136.8,-139.44,-53.26
155.45,514.0,-11068.0,-13648.0,-5.69,-48.17,-140.96,-142.9,-38.59
155.53,580.0,-10126.0,-14430.0,-5.44,-47.81,-144.94,-146.69,-38.11
155.61,538.0,-9226.0,-14882.0,-6.18,-48.44,-148.2,-150.47,-37.63
155.69,534.0,-8266.0,-15586.0,-5.69,-47.79,-152.06,-154.14,-37.17
155.78,522.0,-7406.0,-16064.0,-5.7,-47.46,-155.25,-157.68,-23.15
155.86,490.0,-5812.0,-16818.0,-5.5,-47.08,-160.94,-161.46,-22.7
155.94,534.0,-5446.0,-17034.0,-5.35,-46.89,-162.27,-164.98,-22.22
156.02,524.0,-4242.0,-17200.0,-5.72,-47.04,-166.15,-168.53,-21.75
156.11,488.0,-3034.0,-17674.0,-5.65,-46.56,-170.26,-172.08,-8.02
156.19,478.0,-2226.0,-17918.0,-6.11,-46.89,-172.92,-175.58,-7.57
156.27,482.0,-1030.0,-17772.0,-5.73,-46.3,-176.68,-179.04,-7.14
156.35,488.0,890.0,-17860.0,-5.91,-46.3,177.15,177.24,-6.69
156.43,450.0,1180.0,-17846.0,-5.56,-45.82,176.22,174.03,6.5
156.5,468.0,2248.0,-17714.0,-5.42,-45.52,172.77,170.78,6.94
156.58,412.0,3230.0,-17494.0,-5.73,-45.67,169.54,167.54,7.39
156.66,444.0,4194.0,-17234.0,-5.75,-45.52,166.32,164.31,7.83
156.74,424.0,5566.0,-16850.0,-5.5,-44.8,161.72,161.13,20.42
156.81,454.0,6780.0,-16442.0,-5.54,-44.8,157.59,157.67,20.87
156.89,438.0,7306.0,-16088.0,-5.5,-44.77,155.58,154.35,21.33
156.97,418.0,7770.0,-15908.0,-5.68,-44.85,153.97,151.2,21.78
157.05,412.0,8810.0,-15140.0,-5.41,-44.26,149.8,147.99,34.19
157.13,440.0,9774.0,-14526.0,-5.47,-44.18,146.06,144.73,34.62
157.2,408.0,10864.0,-13686.0,-5.67,-44.27,141.56,141.34,35.06
157.28,404.0,11574.0,-13084.0,-5.31,-43.89,138.5,137.97,35.49
157.37,396.0,12148.0,-12254.0,-5.79,-44.27,135.25,134.37,48.22
157.44,426.0,12864.0,-11504.0,-5.56,-43.99,131.81,131.0,48.66
157.52,454.0,13134.0,-11000.0,-6.13,-44.5,129.95,127.74,49.08
157.6,378.0,14224.0,-9526.0,-5.47,-43.68,123.81,124.28,49.51
157.69,350.0,14778.0,-8708.0,-5.63,-44.19,120.51,120.1,62.15
157.76,400.0,14998.0,-8018.0,-5.53,-44.07,118.13,116.81,62.58
157.84,410.0,15420.0,-6894.0,-5.62,-44.08,114.09,113.47,63.0
157.92,348.0,15676.0,-6254.0,-5.65,-44.06,111.75,110.22,63.44
158.01,402.0,15850.0,-5016.0,-5.25,-43.31,107.56,106.76,75.68
158.08,358.0,16094.0,-4272.0,-5.08,-43.1,104.87,103.53,76.08
158.16,390.0,16194.0,-2872.0,-5.14,-43.08,100.06,100.2,76.47
158.24,384.0,16340.0,-1836.0,-4.85,-42.8,96.41,96.86,76.87
158.32,348.0,16456.0,-1004.0,-4.87,-42.93,93.49,93.42,88.04
158.39,384.0,16234.0,-126.0,-5.21,-43.26,90.44,90.21,88.35
158.46,400.0,16176.0,478.0,-5.03,-43.07,88.31,87.14,88.64
158.54,352.0,16194.0,1658.0,-4.99,-42.94,84.15,84.03,88.85
158.61,370.0,15840.0,2626.0,-4.95,-42.89,80.59,80.72,79.55
158.69,372.0,15618.0,3060.0,-4.92,-42.87,78.91,77.68,79.15
158.76,390.0,15332.0,4162.0,-4.66,-42.52,74.81,74.57,78.76
