Tiempo,AccX,AccY,AccZ,GiroY,KalmanGiroY,Pitch,KalmanPitch
2.33,376.0,-376.0,14968.0,1.65,0.29,-1.44,-0.88
2.39,300.0,-384.0,14984.0,1.63,0.23,-1.47,-0.92
2.45,244.0,-376.0,15156.0,1.4,-0.04,-1.42,-0.97
2.51,388.0,-412.0,14984.0,1.75,0.27,-1.58,-1.01
2.57,428.0,-384.0,15104.0,1.61,0.09,-1.46,-1.05
2.63,324.0,-360.0,15108.0,1.65,0.1,-1.37,-1.08
2.69,360.0,-284.0,15140.0,1.71,0.14,-1.07,-1.07
2.75,256.0,-320.0,14952.0,1.61,0.04,-1.23,-1.08
2.81,236.0,-368.0,15124.0,1.54,-0.04,-1.39,-1.12
2.87,288.0,-308.0,14980.0,1.5,-0.1,-1.18,-1.13
2.93,428.0,-288.0,15068.0,1.6,-0.01,-1.09,-1.13
2.98,432.0,-328.0,14772.0,1.44,-0.17,-1.27,-1.15
3.04,416.0,-692.0,15488.0,1.63,0.01,-2.56,-1.29
3.1,384.0,-328.0,15056.0,1.49,-0.23,-1.25,-1.3
3.16,340.0,-416.0,15020.0,1.66,-0.05,-1.59,-1.33
3.22,308.0,-440.0,15268.0,1.48,-0.26,-1.65,-1.37
3.28,264.0,-432.0,15084.0,1.66,-0.1,-1.64,-1.41
3.34,336.0,-360.0,15064.0,1.64,-0.14,-1.37,-1.41
3.4,336.0,-260.0,14892.0,1.66,-0.11,-1.0,-1.37
3.46,400.0,-336.0,15060.0,1.55,-0.2,-1.28,-1.38
3.52,420.0,-288.0,15224.0,1.47,-0.27,-1.08,-1.36
3.58,408.0,-340.0,14960.0,1.64,-0.07,-1.3,-1.36
3.64,360.0,-284.0,15100.0,1.53,-0.18,-1.08,-1.34
3.7,424.0,-368.0,15064.0,1.65,-0.04,-1.4,-1.35
3.76,444.0,-384.0,14848.0,1.51,-0.18,-1.48,-1.37
3.82,360.0,-412.0,15108.0,1.6,-0.11,-1.56,-1.4
3.88,476.0,-304.0,15128.0,1.6,-0.12,-1.15,-1.38
3.94,456.0,-340.0,14896.0,1.62,-0.08,-1.31,-1.38
4.0,396.0,-368.0,14916.0,1.71,0.02,-1.41,-1.38
4.06,344.0,-308.0,14992.0,1.66,-0.03,-1.18,-1.36
4.12,448.0,-372.0,14984.0,1.57,-0.11,-1.42,-1.37
4.18,380.0,-356.0,15068.0,1.6,-0.08,-1.35,-1.37
4.24,236.0,-304.0,15072.0,1.6,-0.08,-1.16,-1.36
4.3,364.0,-472.0,14924.0,1.47,-0.2,-1.81,-1.41
4.36,436.0,-392.0,15156.0,1.64,-0.06,-1.48,-1.42
4.42,368.0,-368.0,14928.0,1.58,-0.12,-1.41,-1.43
4.48,420.0,-316.0,15172.0,1.56,-0.14,-1.19,-1.41
4.54,360.0,-340.0,15112.0,1.61,-0.07,-1.29,-1.4
4.6,384.0,-300.0,14956.0,1.8,0.13,-1.15,-1.37
4.66,284.0,-400.0,15080.0,1.56,-0.1,-1.52,-1.39
4.72,452.0,-404.0,15012.0,1.76,0.09,-1.54,-1.4
4.78,324.0,-356.0,15000.0,1.44,-0.24,-1.36,-1.41
4.84,284.0,-376.0,15084.0,1.53,-0.14,-1.43,-1.42
4.9,376.0,-292.0,14944.0,1.58,-0.09,-1.12,-1.39
4.96,384.0,-336.0,15000.0,1.79,0.13,-1.28,-1.38
5.01,368.0,-412.0,14952.0,1.56,-0.09,-1.58,-1.4
5.07,332.0,-368.0,15068.0,1.76,0.1,-1.4,-1.4
5.13,452.0,-316.0,15068.0,1.59,-0.07,-1.2,-1.38
5.19,436.0,-212.0,15024.0,1.69,0.05,-0.81,-1.32
5.25,460.0,-456.0,15068.0,1.65,0.05,-1.73,-1.36
5.31,388.0,-368.0,15064.0,1.57,-0.06,-1.4,-1.37
5.37,384.0,-452.0,15044.0,1.45,-0.19,-1.72,-1.41
5.43,404.0,-340.0,15340.0,1.54,-0.12,-1.27,-1.4
5.49,328.0,-316.0,15228.0,1.55,-0.1,-1.19,-1.39
5.55,352.0,-344.0,14964.0,1.69,0.06,-1.32,-1.38
5.61,352.0,-452.0,15044.0,1.57,-0.06,-1.72,-1.41
5.67,352.0,-420.0,15096.0,1.75,0.09,-1.59,-1.43
5.73,448.0,-432.0,15196.0,1.53,-0.13,-1.63,-1.45
5.79,332.0,-212.0,14896.0,1.58,-0.1,-0.82,-1.4
5.85,392.0,-260.0,15020.0,1.59,-0.05,-0.99,-1.36
5.91,596.0,-284.0,14928.0,1.64,0.04,-1.09,-1.33
5.97,388.0,-368.0,15104.0,1.47,-0.11,-1.4,-1.34
6.03,424.0,-316.0,15004.0,1.51,-0.08,-1.21,-1.33
6.09,232.0,-332.0,15160.0,1.63,0.05,-1.25,-1.32
6.14,428.0,-208.0,15144.0,1.53,-0.05,-0.79,-1.27
6.2,352.0,-100.0,14872.0,1.5,-0.03,-0.39,-1.18
6.26,320.0,-176.0,14976.0,1.69,0.22,-0.67,-1.12
6.32,300.0,-296.0,15148.0,1.6,0.16,-1.12,-1.11
6.38,284.0,-252.0,15252.0,1.71,0.28,-0.95,-1.08
6.44,380.0,-252.0,15156.0,1.68,0.26,-0.95,-1.05
6.5,428.0,-204.0,15060.0,1.68,0.26,-0.78,-1.01
6.56,444.0,-296.0,14984.0,1.7,0.31,-1.13,-1.01
6.62,348.0,-376.0,15056.0,1.7,0.3,-1.43,-1.03
6.68,456.0,-428.0,14956.0,1.6,0.16,-1.64,-1.09
6.73,420.0,-400.0,15356.0,1.74,0.26,-1.49,-1.11
6.79,480.0,192.0,14700.0,1.47,-0.05,0.75,-0.93
6.85,304.0,-292.0,15172.0,1.57,0.2,-1.1,-0.94
6.91,420.0,-408.0,14584.0,1.89,0.5,-1.6,-0.98
6.97,380.0,-424.0,15052.0,1.69,0.25,-1.61,-1.03
7.03,404.0,-308.0,15144.0,1.76,0.27,-1.17,-1.03
7.09,284.0,-376.0,14948.0,1.66,0.16,-1.44,-1.06
7.14,268.0,-364.0,14964.0,1.54,0.01,-1.39,-1.09
7.2,328.0,-412.0,15052.0,1.64,0.09,-1.57,-1.14
7.26,304.0,-296.0,14996.0,1.59,-0.0,-1.13,-1.13
7.32,432.0,-312.0,15052.0,1.65,0.06,-1.19,-1.14
7.38,412.0,-300.0,14952.0,1.59,-0.01,-1.15,-1.14
7.44,348.0,-356.0,15020.0,1.48,-0.11,-1.36,-1.17
7.5,292.0,-272.0,15008.0,1.53,-0.08,-1.04,-1.16
7.56,464.0,-216.0,15064.0,1.51,-0.09,-0.82,-1.13
7.62,408.0,-320.0,14984.0,1.61,0.04,-1.22,-1.14
7.68,468.0,-336.0,14928.0,1.69,0.1,-1.29,-1.15
7.74,388.0,-412.0,15084.0,1.73,0.13,-1.56,-1.18
7.8,344.0,-312.0,15012.0,1.63,0.0,-1.19,-1.18
7.86,492.0,-376.0,14788.0,1.72,0.09,-1.46,-1.2
7.91,340.0,-392.0,14980.0,1.79,0.14,-1.5,-1.23
7.97,376.0,-404.0,14996.0,1.63,-0.03,-1.54,-1.26
8.03,364.0,-392.0,15036.0,1.58,-0.11,-1.49,-1.29
8.09,404.0,-424.0,14956.0,1.62,-0.09,-1.62,-1.33
8.15,416.0,-444.0,15084.0,1.61,-0.12,-1.69,-1.37
8.21,344.0,-476.0,15052.0,1.5,-0.26,-1.81,-1.43
8.27,300.0,-424.0,14972.0,1.73,-0.06,-1.62,-1.45
8.33,420.0,-392.0,14908.0,1.6,-0.21,-1.51,-1.47
8.39,368.0,-424.0,15024.0,1.64,-0.16,-1.62,-1.49
8.45,396.0,-376.0,15188.0,1.6,-0.21,-1.42,-1.5
8.51,428.0,-400.0,14936.0,1.6,-0.21,-1.53,-1.51
8.57,412.0,-400.0,14936.0,1.52,-0.29,-1.53,-1.53
8.63,364.0,-416.0,14812.0,1.74,-0.07,-1.61,-1.54
8.69,340.0,-452.0,14964.0,1.68,-0.14,-1.73,-1.57
8.75,260.0,-332.0,15204.0,1.6,-0.23,-1.25,-1.55
8.81,236.0,-480.0,15216.0,1.65,-0.16,-1.81,-1.58
8.87,448.0,-356.0,15020.0,1.69,-0.13,-1.36,-1.57
8.93,332.0,-328.0,14908.0,1.65,-0.16,-1.26,-1.54
8.99,416.0,-272.0,15076.0,1.73,-0.06,-1.03,-1.5
9.05,380.0,-428.0,15048.0,1.55,-0.2,-1.63,-1.52
9.11,436.0,-428.0,15128.0,1.66,-0.09,-1.62,-1.54
9.17,308.0,-444.0,15096.0,1.54,-0.22,-1.68,-1.56
9.23,424.0,-388.0,14952.0,1.63,-0.14,-1.49,-1.56
9.29,388.0,-336.0,14872.0,1.59,-0.18,-1.29,-1.54
9.35,272.0,-328.0,14960.0,1.51,-0.23,-1.26,-1.53
9.41,320.0,-320.0,15220.0,1.74,0.02,-1.2,-1.49
9.47,456.0,-396.0,15168.0,1.65,-0.05,-1.5,-1.5
9.53,424.0,-208.0,14820.0,1.77,0.07,-0.8,-1.42
9.59,328.0,-372.0,14844.0,1.76,0.11,-1.44,-1.42
9.65,356.0,-352.0,14824.0,1.68,0.03,-1.36,-1.41
9.7,412.0,-316.0,15104.0,1.59,-0.06,-1.2,-1.39
9.76,348.0,-320.0,15064.0,1.75,0.12,-1.22,-1.37
9.82,420.0,-376.0,15044.0,1.65,0.03,-1.43,-1.37
9.88,420.0,-276.0,15140.0,1.64,0.02,-1.04,-1.34
9.94,424.0,-220.0,15112.0,1.53,-0.07,-0.83,-1.29
10.0,356.0,-400.0,15044.0,1.59,0.03,-1.52,-1.32
10.06,260.0,-268.0,14928.0,1.62,0.04,-1.03,-1.28
10.12,300.0,-260.0,14900.0,1.72,0.16,-1.0,-1.25
10.18,376.0,-448.0,15232.0,1.69,0.15,-1.68,-1.28
10.24,404.0,-436.0,14988.0,1.59,0.02,-1.67,-1.32
10.3,316.0,-396.0,15112.0,1.58,-0.02,-1.5,-1.34
10.36,304.0,-376.0,15096.0,1.69,0.07,-1.43,-1.34
10.42,284.0,-388.0,14956.0,1.59,-0.03,-1.49,-1.36
10.48,492.0,-352.0,15072.0,1.69,0.06,-1.34,-1.35
10.54,396.0,-344.0,15000.0,1.45,-0.18,-1.31,-1.36
10.6,292.0,-504.0,14904.0,1.7,0.08,-1.94,-1.41
10.66,276.0,-384.0,15056.0,1.72,0.05,-1.46,-1.42
10.72,388.0,-420.0,15088.0,1.62,-0.05,-1.59,-1.44
10.78,324.0,-380.0,14960.0,1.77,0.09,-1.46,-1.43
10.84,408.0,-388.0,15012.0,1.56,-0.12,-1.48,-1.45
10.9,320.0,-356.0,15112.0,1.61,-0.08,-1.35,-1.44
10.96,412.0,-412.0,15108.0,1.46,-0.22,-1.56,-1.46
11.03,468.0,-444.0,14952.0,1.55,-0.14,-1.7,-1.5
11.09,300.0,-456.0,14904.0,1.7,-0.0,-1.75,-1.52
11.15,416.0,-484.0,15056.0,1.57,-0.15,-1.84,-1.56
11.21,512.0,-316.0,15096.0,1.76,0.02,-1.2,-1.52
11.27,368.0,-360.0,15216.0,1.82,0.1,-1.36,-1.5
11.33,320.0,-456.0,15348.0,1.69,-0.02,-1.7,-1.52
11.39,352.0,-392.0,14952.0,1.56,-0.17,-1.5,-1.53
11.45,408.0,-344.0,15044.0,1.63,-0.09,-1.31,-1.51
11.51,268.0,-320.0,15056.0,1.58,-0.12,-1.22,-1.49
11.57,420.0,-416.0,15008.0,1.64,-0.04,-1.59,-1.5
11.63,364.0,-184.0,15064.0,1.59,-0.1,-0.7,-1.43
11.69,244.0,-368.0,15276.0,1.51,-0.12,-1.38,-1.43
11.75,472.0,-428.0,14944.0,1.6,-0.03,-1.64,-1.45
11.82,340.0,-320.0,15048.0,1.65,0.01,-1.22,-1.43
11.88,360.0,-272.0,15208.0,1.54,-0.08,-1.02,-1.39
11.94,436.0,-288.0,15068.0,1.56,-0.04,-1.09,-1.36
12.0,412.0,-340.0,15080.0,1.6,0.03,-1.29,-1.35
12.06,308.0,-304.0,14980.0,1.63,0.07,-1.16,-1.33
12.12,316.0,-248.0,14944.0,1.72,0.17,-0.95,-1.28
12.18,292.0,-240.0,14972.0,1.63,0.11,-0.92,-1.24
12.24,336.0,-436.0,15204.0,1.69,0.2,-1.64,-1.27
12.3,364.0,-312.0,14972.0,1.72,0.19,-1.19,-1.25
12.36,576.0,-292.0,15116.0,1.76,0.23,-1.11,-1.23
12.42,388.0,-428.0,15228.0,1.63,0.11,-1.61,-1.26
12.48,336.0,-292.0,14988.0,1.62,0.07,-1.12,-1.24
12.54,196.0,-408.0,15176.0,1.46,-0.08,-1.54,-1.27
12.6,704.0,-240.0,13924.0,1.12,-0.43,-0.99,-1.27
12.66,416.0,-1536.0,15924.0,2.37,0.84,-5.51,-1.65
12.72,352.0,-796.0,15312.0,1.75,-0.1,-2.98,-1.79
12.78,344.0,-552.0,15232.0,1.83,-0.11,-2.08,-1.83
12.84,208.0,-644.0,17140.0,1.0,-0.97,-2.15,-1.91
12.9,428.0,-548.0,14296.0,1.04,-0.95,-2.2,-1.99
12.96,400.0,-604.0,15232.0,1.44,-0.57,-2.27,-2.05
13.02,472.0,-420.0,14992.0,1.64,-0.38,-1.6,-2.03
13.08,420.0,-408.0,15060.0,1.55,-0.44,-1.55,-2.0
13.15,368.0,-1784.0,16652.0,2.11,0.17,-6.12,-2.41
13.21,428.0,-628.0,14804.0,1.28,-0.97,-2.43,-2.47
13.27,280.0,-680.0,15180.0,1.62,-0.63,-2.56,-2.51
13.33,396.0,-428.0,14784.0,1.73,-0.53,-1.66,-2.45
13.39,432.0,-344.0,15080.0,1.56,-0.63,-1.31,-2.37
13.45,324.0,-240.0,14968.0,1.62,-0.48,-0.92,-2.25
13.51,440.0,-212.0,15224.0,1.63,-0.37,-0.8,-2.12
13.57,304.0,-368.0,14848.0,1.69,-0.19,-1.42,-2.06
13.63,360.0,-440.0,14900.0,1.77,-0.06,-1.69,-2.03
13.69,368.0,-428.0,15052.0,1.63,-0.18,-1.63,-2.0
13.75,440.0,-312.0,14932.0,1.6,-0.18,-1.2,-1.92
13.82,384.0,-432.0,15052.0,1.44,-0.28,-1.64,-1.91
13.88,352.0,-392.0,14892.0,1.63,-0.06,-1.51,-1.87
13.94,324.0,-352.0,14820.0,1.69,0.03,-1.36,-1.82
14.0,344.0,-368.0,14912.0,1.71,0.09,-1.41,-1.77
14.06,340.0,-384.0,15000.0,1.71,0.12,-1.47,-1.74
14.12,360.0,-296.0,14848.0,1.56,-0.01,-1.14,-1.68
14.18,356.0,-412.0,14872.0,1.63,0.1,-1.59,-1.66
14.24,396.0,-320.0,15008.0,1.53,0.01,-1.22,-1.62
14.3,404.0,-324.0,14968.0,1.51,0.02,-1.24,-1.58
14.36,380.0,-356.0,14892.0,1.56,0.1,-1.37,-1.55
14.42,340.0,-480.0,14920.0,1.64,0.2,-1.84,-1.57
14.48,416.0,-364.0,15056.0,1.7,0.23,-1.38,-1.54
14.54,404.0,-320.0,15088.0,1.55,0.09,-1.21,-1.5
14.6,380.0,-320.0,15160.0,1.45,0.02,-1.21,-1.47
14.66,288.0,-388.0,14988.0,1.6,0.19,-1.48,-1.46
14.72,368.0,-360.0,14916.0,1.68,0.27,-1.38,-1.44
14.78,440.0,-472.0,15128.0,1.7,0.29,-1.79,-1.46
14.84,372.0,-456.0,15112.0,1.56,0.13,-1.73,-1.48
14.9,364.0,-352.0,15060.0,1.66,0.2,-1.34,-1.45
14.96,324.0,-420.0,14960.0,1.53,0.09,-1.61,-1.46
15.02,400.0,-384.0,14956.0,1.73,0.27,-1.47,-1.45
15.08,368.0,-284.0,14924.0,1.64,0.18,-1.09,-1.4
15.14,296.0,-416.0,14996.0,1.5,0.07,-1.59,-1.42
15.2,504.0,-284.0,14896.0,1.5,0.05,-1.09,-1.38
15.26,376.0,-372.0,15148.0,1.66,0.23,-1.41,-1.37
15.32,524.0,-260.0,15120.0,1.6,0.17,-0.99,-1.33
15.38,428.0,-396.0,14920.0,1.5,0.1,-1.52,-1.34
15.44,264.0,-324.0,15016.0,1.66,0.24,-1.24,-1.32
15.5,344.0,-540.0,14852.0,1.55,0.14,-2.08,-1.39
15.56,348.0,-440.0,15060.0,1.66,0.2,-1.67,-1.4
15.62,300.0,-292.0,15040.0,1.65,0.16,-1.11,-1.37
15.68,364.0,1872.0,14548.0,-86.64,-88.11,7.33,-5.23
15.74,472.0,-3768.0,14684.0,-159.15,-159.59,-14.39,-15.21
15.81,408.0,-6980.0,14132.0,-170.85,-171.22,-26.29,-27.04
15.88,376.0,-8784.0,12372.0,-164.98,-165.29,-35.37,-38.21
15.95,508.0,-12604.0,9828.0,-167.63,-167.7,-52.05,-50.11
16.02,568.0,-14368.0,6504.0,-184.13,-184.37,-65.65,-63.22
16.09,384.0,-15460.0,4068.0,-171.15,-171.59,-75.26,-75.17
16.16,652.0,-16128.0,132.0,-166.05,-166.5,-89.53,-87.06
16.22,528.0,-16480.0,-1864.0,-174.22,-174.89,-96.45,-98.76
16.3,520.0,-15432.0,-6416.0,-173.55,-174.01,-112.58,-111.22
16.37,520.0,-13948.0,-9592.0,-178.31,-178.89,-124.52,-124.28
16.44,600.0,-12140.0,-12604.0,-174.14,-174.74,-136.07,-136.9
16.52,536.0,-8516.0,-15520.0,-184.09,-184.62,-151.25,-150.62
16.59,628.0,-5976.0,-16872.0,-172.03,-172.62,-160.5,-162.89
16.66,572.0,-2016.0,-17652.0,-170.07,-170.44,-173.48,-175.1
16.73,436.0,1420.0,-17764.0,-176.37,-176.59,175.43,172.42
16.8,372.0,5228.0,-16888.0,-177.38,-177.34,162.8,160.37
16.87,624.0,7268.0,-16128.0,-183.47,-183.21,155.74,148.52
16.94,404.0,10628.0,-13716.0,-178.16,-177.25,142.23,136.85
17.01,360.0,13608.0,-10732.0,-170.87,-169.48,128.26,125.24
17.08,344.0,14992.0,-7704.0,-168.27,-166.61,117.2,113.87
17.15,244.0,15928.0,-4860.0,-169.36,-167.4,106.97,102.74
17.22,292.0,16520.0,-564.0,-168.18,-165.85,91.96,91.27
17.29,940.0,15472.0,2960.0,-185.49,-183.1,79.17,79.12
17.36,280.0,14608.0,5400.0,-174.22,-171.83,69.71,67.92
17.42,332.0,12568.0,8672.0,-168.48,-165.93,55.39,56.73
17.49,328.0,10476.0,11000.0,-166.18,-163.74,43.6,45.61
17.56,224.0,8504.0,12788.0,-176.76,-174.5,33.62,33.8
17.62,344.0,4808.0,14096.0,-176.5,-174.25,18.83,21.85
17.69,316.0,2532.0,14980.0,-187.83,-185.85,9.59,9.51
17.75,232.0,-1376.0,15356.0,-176.29,-174.3,-5.12,-2.06
17.82,404.0,-6376.0,15412.0,-173.08,-171.35,-22.48,-14.57
17.89,464.0,-7020.0,13556.0,-178.13,-177.08,-27.38,-26.95
17.96,540.0,-12280.0,11356.0,-174.43,-173.42,-47.24,-39.91
18.03,728.0,-13568.0,7700.0,-169.36,-168.99,-60.42,-52.8
18.1,524.0,-15352.0,4968.0,-165.05,-165.34,-72.07,-65.16
18.17,480.0,-16132.0,1732.0,-172.42,-173.32,-83.87,-77.95
18.24,688.0,-16080.0,-1824.0,-173.16,-174.58,-96.47,-90.81
18.31,844.0,-15632.0,-6392.0,-180.58,-182.5,-112.24,-104.65
18.38,364.0,-14784.0,-8892.0,-173.94,-176.52,-121.03,-117.9
18.46,592.0,-13376.0,-11896.0,-175.94,-178.8,-131.65,-131.0
18.53,412.0,-10176.0,-14520.0,-170.53,-173.45,-144.98,-143.95
18.61,656.0,-6952.0,-16276.0,-168.27,-171.29,-156.87,-156.64
18.68,384.0,-3588.0,-17248.0,-172.82,-175.85,-168.25,-169.31
18.75,488.0,772.0,-17900.0,-176.05,-178.98,177.53,177.63
18.82,304.0,5112.0,-17412.0,-182.98,-185.92,163.64,164.74
18.89,588.0,6508.0,-16376.0,-174.1,-177.15,158.33,153.06
18.96,268.0,10240.0,-13908.0,-174.06,-176.64,143.64,141.08
19.03,328.0,12828.0,-11388.0,-172.75,-175.09,131.6,129.02
19.1,392.0,15024.0,-7908.0,-168.86,-170.98,117.76,117.01
19.17,332.0,15700.0,-4460.0,-177.3,-179.35,105.86,104.67
19.24,592.0,15872.0,-2672.0,-175.31,-177.25,99.56,93.13
19.31,268.0,16420.0,1676.0,-190.12,-191.49,84.17,80.65
19.37,316.0,15252.0,4680.0,-169.39,-170.45,72.94,69.72
19.44,332.0,13544.0,8156.0,-168.54,-169.32,58.94,58.53
19.51,464.0,10984.0,10564.0,-169.91,-170.65,46.12,47.07
19.57,524.0,7552.0,13088.0,-183.1,-183.92,29.99,34.14
19.64,324.0,4708.0,14196.0,-172.52,-173.7,18.35,22.13
19.71,352.0,1984.0,14980.0,-163.82,-165.34,7.54,10.75
19.77,468.0,-1324.0,14668.0,-167.53,-169.33,-5.16,-0.85
19.84,284.0,-4088.0,14304.0,-176.81,-178.97,-15.95,-13.24
19.91,616.0,-7356.0,13220.0,-179.11,-181.51,-29.09,-26.23
19.98,720.0,-10900.0,11216.0,-182.15,-184.8,-44.18,-39.64
20.05,560.0,-12908.0,8604.0,-169.08,-172.12,-56.31,-52.3
20.12,504.0,-14920.0,5472.0,-167.96,-171.36,-69.86,-64.84
20.19,552.0,-16332.0,2116.0,-174.92,-178.76,-82.62,-77.87
20.26,740.0,-16180.0,-856.0,-173.4,-177.65,-93.03,-90.55
20.33,548.0,-15976.0,-4152.0,-186.3,-190.77,-104.57,-103.9
20.4,540.0,-14872.0,-8312.0,-170.66,-175.19,-119.2,-116.95
20.47,588.0,-12368.0,-11692.0,-166.47,-171.2,-133.39,-129.86
20.55,372.0,-10060.0,-14484.0,-174.92,-179.96,-145.22,-143.39
20.62,616.0,-7036.0,-16296.0,-171.79,-177.0,-156.65,-156.5
20.7,552.0,-3416.0,-17500.0,-174.77,-179.99,-168.95,-169.53
20.77,396.0,1012.0,-17592.0,-172.34,-177.51,176.71,177.44
20.84,436.0,3944.0,-17124.0,-186.47,-191.7,167.03,164.41
20.91,376.0,7500.0,-16008.0,-167.6,-172.6,154.9,152.67
20.98,416.0,9504.0,-14716.0,-167.98,-172.79,147.14,141.36
21.05,400.0,12564.0,-12232.0,-177.66,-181.95,134.23,129.31
21.12,416.0,14356.0,-8800.0,-174.58,-178.42,121.51,117.23
21.19,284.0,15996.0,-6284.0,-182.34,-185.8,111.45,105.09
21.26,128.0,16588.0,-1352.0,-180.3,-183.19,94.66,92.59
21.33,300.0,16000.0,1524.0,-180.89,-183.6,84.56,80.68
21.39,500.0,14944.0,5116.0,-165.15,-167.52,71.1,69.72
21.46,612.0,13676.0,7632.0,-172.21,-174.45,60.84,58.43
21.52,296.0,10972.0,10420.0,-173.78,-175.81,46.48,46.72
21.59,376.0,9568.0,12012.0,-187.41,-189.47,38.54,34.43
21.66,348.0,5968.0,14096.0,-175.52,-177.22,22.95,22.69
21.73,468.0,2160.0,14984.0,-165.7,-167.38,8.2,11.2
21.79,492.0,-176.0,15052.0,-164.7,-166.64,-0.67,0.2
21.86,540.0,-4360.0,14552.0,-181.36,-183.37,-16.68,-12.3
21.93,296.0,-8604.0,13180.0,-172.92,-175.31,-33.14,-25.44
22.0,628.0,-10188.0,11512.0,-183.18,-186.24,-41.51,-38.74
22.07,600.0,-13328.0,8520.0,-173.88,-177.17,-57.41,-51.94
22.14,512.0,-14928.0,5824.0,-172.4,-176.17,-68.69,-64.69
22.21,392.0,-15848.0,2536.0,-178.38,-182.51,-80.91,-77.78
22.27,744.0,-16884.0,-1620.0,-176.85,-181.25,-95.48,-90.96
22.35,796.0,-16036.0,-4360.0,-186.52,-191.32,-105.21,-104.56
22.42,528.0,-14860.0,-8236.0,-165.55,-170.41,-119.0,-117.2
22.49,672.0,-13188.0,-11140.0,-166.52,-171.53,-130.19,-129.75
22.57,524.0,-11004.0,-13660.0,-177.24,-182.29,-141.15,-142.99
22.64,600.0,-6812.0,-16176.0,-174.15,-179.04,-157.16,-156.33
22.71,448.0,-3408.0,-17192.0,-179.03,-184.0,-168.79,-169.63
22.78,640.0,-1328.0,-17608.0,-174.56,-179.45,-175.69,-181.9
22.86,388.0,1536.0,-17688.0,-189.47,-193.79,175.04,165.25
22.93,392.0,6792.0,-16408.0,-165.6,-169.04,157.51,153.92
23.0,496.0,10524.0,-13872.0,-170.27,-173.38,142.81,141.95
23.07,644.0,12048.0,-12532.0,-180.16,-183.2,136.13,129.8
23.14,696.0,13916.0,-9528.0,-176.79,-179.26,124.4,117.94
23.21,496.0,15912.0,-5884.0,-184.39,-186.28,110.29,105.56
23.28,132.0,16752.0,-988.0,-181.21,-182.67,93.38,92.9
23.34,200.0,15828.0,904.0,-170.72,-172.14,86.73,82.05
23.41,304.0,15052.0,4644.0,-168.76,-169.77,72.85,71.17
23.48,408.0,13456.0,7412.0,-175.04,-175.9,61.15,59.67
23.54,460.0,12000.0,10188.0,-177.14,-177.87,49.67,48.05
23.61,496.0,9336.0,12292.0,-188.0,-188.59,37.22,35.53
23.68,168.0,6100.0,13768.0,-175.07,-175.51,23.9,23.87
23.74,304.0,2864.0,14708.0,-169.12,-169.56,11.02,12.43
23.81,432.0,-1072.0,15308.0,-167.21,-167.78,-4.01,0.71
23.88,376.0,-4888.0,14452.0,-183.96,-184.93,-18.69,-12.34
23.95,376.0,-9068.0,12360.0,-172.95,-174.47,-36.27,-25.77
24.02,420.0,-9984.0,11500.0,-177.74,-180.17,-40.96,-38.6
24.09,448.0,-12820.0,9112.0,-176.05,-178.69,-54.6,-51.42
24.15,512.0,-14780.0,6104.0,-174.35,-177.27,-67.56,-64.18
24.22,516.0,-15644.0,3000.0,-180.8,-184.02,-79.14,-77.22
24.29,680.0,-16804.0,-1896.0,-178.19,-181.57,-96.44,-90.59
24.36,628.0,-16260.0,-4180.0,-181.34,-185.23,-104.42,-103.76
24.44,600.0,-15236.0,-7904.0,-164.02,-167.98,-117.42,-116.15
24.51,448.0,-13488.0,-10932.0,-168.54,-172.61,-129.02,-128.76
24.58,972.0,-10596.0,-13768.0,-179.36,-183.45,-142.42,-142.33
24.66,464.0,-7480.0,-15756.0,-176.73,-180.83,-154.6,-155.57
24.73,576.0,-4168.0,-17088.0,-182.76,-186.77,-166.29,-168.85
24.8,432.0,28.0,-17724.0,-177.73,-181.52,179.91,178.15
24.87,492.0,2748.0,-17272.0,-178.73,-182.35,170.96,166.42
24.94,444.0,6760.0,-16460.0,-168.72,-171.93,157.67,154.8
25.01,304.0,9324.0,-14764.0,-173.63,-176.58,147.73,143.08
25.08,392.0,11372.0,-12364.0,-173.24,-175.78,137.39,131.57
25.15,572.0,14360.0,-9116.0,-180.6,-182.63,122.41,119.07
25.22,456.0,14924.0,-6604.0,-175.81,-177.54,113.87,107.51
25.29,504.0,16048.0,-4084.0,-186.56,-187.72,104.28,95.54
25.36,524.0,16228.0,716.0,-170.54,-170.93,87.47,84.22
25.43,556.0,15404.0,3872.0,-170.92,-171.01,75.89,73.36
25.49,432.0,14156.0,7240.0,-178.57,-178.45,62.91,61.66
25.56,252.0,11340.0,10140.0,-179.89,-179.65,48.2,49.56
25.63,264.0,9560.0,12104.0,-174.99,-174.88,38.3,37.81
25.69,456.0,6228.0,13536.0,-167.4,-167.24,24.71,26.48
25.76,324.0,3352.0,14676.0,-173.65,-173.64,12.87,14.72
25.83,368.0,-540.0,14732.0,-173.03,-173.19,-2.1,2.63
25.89,380.0,-2804.0,14560.0,-189.82,-190.39,-10.9,-9.92
25.96,292.0,-5040.0,14640.0,-176.52,-177.17,-19.0,-21.72
26.03,576.0,-10520.0,11272.0,-163.56,-163.97,-43.02,-34.21
26.1,532.0,-11896.0,10012.0,-167.23,-168.41,-49.92,-46.53
26.17,512.0,-14588.0,6508.0,-177.43,-178.9,-65.96,-59.92
26.24,532.0,-16076.0,3200.0,-180.38,-182.39,-78.74,-73.29
26.31,268.0,-16620.0,1280.0,-180.12,-182.61,-85.6,-85.96
26.38,644.0,-16232.0,-3840.0,-170.55,-173.0,-103.31,-98.58
26.45,452.0,-15344.0,-7072.0,-169.14,-172.01,-114.74,-111.35
26.52,644.0,-13680.0,-10420.0,-173.47,-176.64,-127.3,-124.56
26.6,496.0,-11248.0,-13620.0,-170.37,-173.79,-140.45,-137.75
26.67,988.0,-7912.0,-15792.0,-182.21,-185.86,-153.39,-151.7
26.74,340.0,-3768.0,-16892.0,-179.34,-183.15,-167.43,-165.31
26.82,532.0,-1400.0,-17764.0,-175.02,-179.02,-175.49,-178.03
26.89,396.0,2208.0,-17536.0,-169.95,-173.73,172.82,169.72
26.96,340.0,5420.0,-16524.0,-170.92,-174.42,161.84,158.05
27.03,448.0,7896.0,-15644.0,-177.23,-180.38,153.22,146.35
27.1,368.0,11232.0,-13560.0,-171.18,-173.71,140.36,134.94
27.17,260.0,14404.0,-9100.0,-184.1,-186.15,122.28,121.83
27.24,500.0,15808.0,-6716.0,-180.59,-182.59,113.02,109.54
27.31,252.0,16524.0,-3360.0,-185.45,-187.15,101.49,97.07
27.38,280.0,16360.0,500.0,-173.69,-175.0,88.25,85.42
27.44,540.0,15452.0,3664.0,-175.07,-176.12,76.66,74.22
27.51,168.0,14408.0,6664.0,-182.76,-183.6,65.18,62.37
27.58,320.0,12052.0,9496.0,-184.82,-185.42,51.76,50.24
27.64,436.0,9672.0,11996.0,-171.27,-171.72,38.88,38.83
27.71,380.0,6952.0,13596.0,-167.24,-167.69,27.08,27.63
27.78,388.0,3368.0,14636.0,-178.97,-179.47,12.96,15.4
27.84,592.0,1148.0,15380.0,-178.52,-179.23,4.27,3.58
27.91,500.0,-2976.0,14784.0,-176.53,-177.18,-11.38,-8.19
27.98,512.0,-6632.0,13620.0,-169.94,-170.87,-25.96,-20.56
28.04,536.0,-8212.0,12860.0,-170.33,-171.72,-32.56,-32.51
28.11,520.0,-12844.0,9272.0,-169.65,-171.05,-54.17,-45.48
28.18,316.0,-14032.0,7112.0,-182.44,-184.6,-63.12,-58.85
28.25,732.0,-15448.0,3336.0,-174.65,-177.18,-77.81,-71.91
28.32,460.0,-16276.0,160.0,-164.92,-167.97,-89.44,-84.25
28.39,584.0,-16356.0,-2752.0,-176.08,-179.59,-99.55,-96.88
28.46,696.0,-15304.0,-6444.0,-174.58,-178.32,-112.83,-109.85
28.54,652.0,-14060.0,-10092.0,-178.49,-182.49,-125.67,-123.42
28.61,872.0,-12036.0,-12804.0,-174.42,-178.62,-136.77,-136.64
28.68,396.0,-11264.0,-14360.0,-185.52,-189.73,-141.89,-149.68
28.76,528.0,-5864.0,-16768.0,-172.17,-175.68,-160.72,-162.45
28.83,612.0,-1956.0,-17684.0,-168.04,-171.4,-173.69,-174.79
28.9,588.0,2180.0,-17808.0,-174.6,-177.86,173.02,172.34
28.97,192.0,5888.0,-16856.0,-176.49,-179.68,160.75,159.92
29.04,436.0,9252.0,-14960.0,-181.29,-184.41,148.27,147.21
29.11,344.0,11456.0,-12956.0,-177.28,-180.31,138.52,135.08
29.18,560.0,14296.0,-10216.0,-184.08,-186.8,125.55,122.28
29.25,404.0,15116.0,-7792.0,-171.53,-173.95,117.27,110.79
29.32,524.0,15972.0,-3600.0,-166.55,-168.4,102.7,99.47
29.39,260.0,16200.0,-988.0,-167.87,-169.43,93.49,88.48
29.46,348.0,15896.0,2980.0,-180.95,-182.07,79.38,76.73
29.53,404.0,14728.0,5888.0,-175.36,-176.24,68.21,65.37
29.59,324.0,12320.0,8960.0,-180.33,-180.96,53.97,53.42
29.66,400.0,10264.0,11236.0,-169.16,-169.74,42.41,42.17
29.73,344.0,7256.0,13152.0,-173.41,-173.97,28.89,30.25
29.79,376.0,4776.0,14520.0,-185.31,-185.99,18.21,17.93
29.86,176.0,852.0,14880.0,-185.12,-185.78,3.28,5.33
29.92,464.0,-1988.0,14840.0,-171.74,-172.57,-7.63,-5.79
29.99,320.0,-5056.0,14480.0,-166.35,-167.34,-19.25,-17.31
30.06,784.0,-10220.0,12084.0,-174.76,-175.91,-40.22,-30.71
30.13,724.0,-10692.0,10972.0,-172.07,-174.05,-44.26,-43.15
30.2,568.0,-13628.0,7664.0,-189.76,-191.83,-60.65,-57.14
30.27,572.0,-15396.0,4204.0,-164.2,-166.58,-74.73,-69.39
30.34,568.0,-16360.0,1132.0,-166.83,-169.69,-86.04,-81.74
30.41,608.0,-16492.0,-2452.0,-171.11,-174.34,-98.46,-94.38
30.48,520.0,-16184.0,-5528.0,-178.93,-182.52,-108.86,-107.45
30.55,584.0,-14696.0,-9128.0,-183.06,-186.78,-121.85,-121.14
30.63,752.0,-12468.0,-12104.0,-180.08,-183.86,-134.15,-134.49
30.7,424.0,-9024.0,-14808.0,-176.6,-180.35,-148.64,-147.91
30.77,440.0,-5916.0,-16736.0,-167.05,-170.87,-160.53,-160.38
30.85,492.0,-2216.0,-17732.0,-171.09,-174.92,-172.88,-173.09
30.92,564.0,1200.0,-17952.0,-178.5,-182.31,176.18,173.92
30.99,560.0,4040.0,-17128.0,-181.15,-184.76,166.73,161.69
31.06,424.0,7256.0,-16236.0,-183.79,-186.94,155.92,149.48
31.13,356.0,10272.0,-14000.0,-180.59,-183.16,143.73,137.51
31.2,368.0,12800.0,-11284.0,-169.13,-171.15,131.4,126.07
31.27,444.0,14916.0,-7944.0,-167.63,-169.18,118.04,114.54
31.34,340.0,16252.0,-4856.0,-172.82,-174.05,106.64,102.89
31.41,340.0,16672.0,-120.0,-171.65,-172.54,90.41,90.82
31.47,864.0,15656.0,2352.0,-185.85,-186.79,81.46,78.75
31.54,332.0,14436.0,5460.0,-174.68,-175.37,69.28,67.34
31.61,216.0,12756.0,8524.0,-167.08,-167.6,56.25,56.22
31.67,424.0,10732.0,10940.0,-166.46,-166.98,44.45,45.05
31.74,440.0,8204.0,13004.0,-178.18,-178.75,32.25,32.9
31.81,408.0,5488.0,14116.0,-175.64,-176.27,21.25,21.19
31.87,356.0,1632.0,14956.0,-188.25,-188.88,6.23,8.38
31.94,448.0,-2124.0,15144.0,-172.64,-173.45,-7.98,-3.33
32.01,200.0,-5652.0,14112.0,-170.51,-171.72,-21.83,-15.66
32.08,208.0,-7724.0,13836.0,-182.4,-184.14,-29.17,-28.55
32.15,492.0,-13012.0,9444.0,-179.53,-181.33,-54.03,-42.58
32.22,248.0,-12808.0,8488.0,-173.25,-176.05,-56.47,-55.01
32.29,300.0,-15172.0,4764.0,-164.5,-167.42,-72.57,-67.31
32.35,560.0,-16112.0,1804.0,-172.79,-176.17,-83.61,-80.02
32.42,476.0,-16248.0,-1808.0,-172.53,-176.23,-96.35,-92.73
32.5,216.0,-15452.0,-6188.0,-183.34,-187.35,-111.82,-106.62
32.57,668.0,-14904.0,-8872.0,-176.42,-180.9,-120.76,-119.9
32.64,684.0,-13052.0,-11884.0,-177.53,-182.09,-132.32,-133.07
32.71,624.0,-10224.0,-14292.0,-171.48,-175.97,-144.42,-145.89
32.79,400.0,-7056.0,-16228.0,-169.37,-173.72,-156.5,-158.48
32.86,684.0,-3596.0,-17328.0,-174.01,-178.19,-168.28,-171.09
32.93,216.0,956.0,-17744.0,-174.44,-178.36,176.92,176.03
33.0,464.0,4812.0,-17336.0,-184.7,-188.55,164.49,163.25
33.07,476.0,6980.0,-16032.0,-167.9,-171.63,156.47,151.87
33.14,388.0,9676.0,-14216.0,-165.28,-168.6,145.76,140.76
33.21,280.0,12860.0,-11184.0,-174.79,-177.66,131.01,128.68
33.28,152.0,15172.0,-7920.0,-170.8,-173.47,117.57,116.53
33.35,512.0,16036.0,-4952.0,-178.6,-181.17,107.16,104.27
33.42,520.0,15804.0,-2476.0,-176.2,-178.51,98.9,92.63
33.49,424.0,16388.0,1548.0,-190.34,-192.1,84.6,80.21
33.56,140.0,14968.0,4820.0,-168.08,-169.44,72.15,69.31
33.62,344.0,13460.0,7896.0,-169.35,-170.47,59.6,58.16
33.69,472.0,10856.0,10696.0,-171.05,-172.04,45.43,46.59
33.76,508.0,7684.0,13072.0,-183.85,-184.94,30.45,33.7
33.82,440.0,4772.0,14192.0,-173.89,-175.27,18.59,21.68
33.89,180.0,2160.0,14768.0,-164.85,-166.5,8.32,10.36
33.96,384.0,-1188.0,14668.0,-168.71,-170.53,-4.63,-1.2
34.02,440.0,-4292.0,14272.0,-176.53,-178.65,-16.74,-13.63
34.09,308.0,-6640.0,13336.0,-179.69,-182.08,-26.47,-26.32
34.16,696.0,-11000.0,10768.0,-181.76,-184.16,-45.61,-39.84
34.23,760.0,-12936.0,8820.0,-169.58,-172.48,-55.71,-52.44
34.3,660.0,-15036.0,5468.0,-167.67,-170.86,-70.02,-64.95
34.37,308.0,-16592.0,2164.0,-174.4,-178.03,-82.57,-77.92
34.44,692.0,-16280.0,-592.0,-173.51,-177.56,-92.08,-90.48
34.51,688.0,-15512.0,-4876.0,-185.76,-189.94,-107.45,-104.11
34.58,552.0,-14700.0,-8576.0,-168.63,-173.11,-120.26,-117.11
34.66,568.0,-13628.0,-12164.0,-164.84,-169.6,-131.75,-129.72
34.73,456.0,-9128.0,-14452.0,-175.31,-180.26,-147.72,-143.57
34.8,372.0,-6636.0,-16284.0,-171.23,-176.54,-157.83,-156.59
34.88,544.0,-2776.0,-17332.0,-176.19,-181.62,-170.9,-169.94
34.95,496.0,784.0,-17484.0,-173.76,-179.28,177.43,177.05
35.02,560.0,4248.0,-17496.0,-187.72,-193.2,166.35,164.08
35.09,456.0,6560.0,-16100.0,-164.34,-169.62,157.83,152.89
35.16,300.0,9620.0,-14952.0,-169.55,-174.38,147.24,141.47
35.23,496.0,12268.0,-12464.0,-178.44,-182.76,135.45,129.49
35.3,276.0,14160.0,-9384.0,-175.24,-179.02,123.53,117.58
35.37,312.0,15304.0,-6644.0,-182.73,-185.98,113.47,105.61
35.44,344.0,16584.0,-884.0,-181.2,-183.75,93.05,92.83
35.5,224.0,16004.0,1288.0,-176.63,-179.17,85.4,81.44
35.57,156.0,15140.0,4464.0,-165.9,-168.08,73.57,70.64
35.64,284.0,13516.0,7556.0,-173.65,-175.57,60.79,59.17
35.7,400.0,11456.0,10040.0,-175.4,-177.19,48.77,47.55
35.77,408.0,9228.0,12152.0,-188.31,-189.98,37.21,34.99
35.84,584.0,6708.0,13660.0,-176.12,-177.6,26.15,23.52
35.9,84.0,2652.0,14904.0,-167.79,-169.04,10.09,12.05
35.97,440.0,-1080.0,15312.0,-166.11,-167.54,-4.03,0.54
36.04,172.0,-4392.0,14448.0,-182.29,-184.11,-16.91,-12.24
36.11,1004.0,-9008.0,12572.0,-173.56,-175.79,-35.62,-25.69
36.18,584.0,-10044.0,11852.0,-184.09,-187.17,-40.28,-39.07
36.25,788.0,-13512.0,8240.0,-173.73,-176.92,-58.62,-52.35
36.32,556.0,-14824.0,5760.0,-172.62,-176.36,-68.77,-65.08
36.39,340.0,-16028.0,2664.0,-178.81,-182.87,-80.56,-78.11
36.46,688.0,-16848.0,-1732.0,-177.19,-181.47,-95.87,-91.31
36.53,624.0,-16252.0,-4408.0,-186.43,-191.11,-105.18,-104.85
36.6,540.0,-15200.0,-8000.0,-163.49,-168.2,-117.76,-117.18
36.67,672.0,-13168.0,-11208.0,-169.21,-173.97,-130.4,-129.91
36.75,560.0,-11336.0,-13536.0,-177.57,-182.38,-140.05,-143.02
36.82,480.0,-6952.0,-16092.0,-174.15,-178.68,-156.63,-156.27
36.89,328.0,-3372.0,-17240.0,-178.52,-183.09,-168.93,-169.53
36.97,420.0,-1532.0,-17652.0,-175.73,-180.24,-175.04,-181.79
37.04,380.0,1964.0,-17532.0,-189.12,-193.03,173.61,165.22
37.11,388.0,6688.0,-16292.0,-165.59,-168.74,157.68,153.94
37.18,540.0,10732.0,-13844.0,-170.9,-173.71,142.22,141.88
37.25,728.0,12484.0,-12480.0,-180.78,-183.56,134.99,129.58
37.32,496.0,14120.0,-9480.0,-176.65,-178.94,123.88,117.71
37.39,428.0,15792.0,-6016.0,-184.2,-185.94,110.85,105.44
37.46,108.0,16844.0,-1112.0,-181.3,-182.56,93.78,92.84
37.53,620.0,15992.0,1164.0,-172.45,-173.62,85.84,81.65
37.59,520.0,15020.0,4784.0,-167.12,-167.93,72.33,70.7
37.66,276.0,13536.0,7740.0,-174.09,-174.75,60.24,59.22
37.73,384.0,11904.0,10056.0,-176.73,-177.29,49.81,47.7
37.79,144.0,9096.0,12156.0,-189.67,-190.06,36.81,35.08
37.86,468.0,6248.0,13892.0,-174.27,-174.51,24.22,23.56
37.93,520.0,2460.0,14648.0,-168.43,-168.6,9.53,12.05
37.99,368.0,-1072.0,15248.0,-167.15,-167.54,-4.02,0.54
38.06,672.0,-4896.0,14504.0,-183.56,-184.36,-18.65,-12.44
38.13,760.0,-9064.0,12188.0,-172.85,-174.18,-36.64,-25.88
38.2,416.0,-10048.0,11520.0,-178.25,-180.51,-41.1,-38.73
38.27,412.0,-13332.0,8752.0,-174.44,-176.9,-56.72,-51.84
38.34,624.0,-15000.0,6036.0,-172.89,-175.79,-68.08,-64.51
38.41,648.0,-15940.0,2888.0,-180.53,-183.74,-79.73,-77.57
38.48,1052.0,-17040.0,-1956.0,-177.43,-180.82,-96.55,-90.86
38.55,584.0,-16340.0,-3992.0,-184.27,-188.17,-103.73,-104.29
38.62,576.0,-15400.0,-8088.0,-163.72,-167.57,-117.71,-116.64
38.7,532.0,-13344.0,-11160.0,-169.84,-173.78,-129.91,-129.36
38.77,320.0,-11500.0,-13396.0,-178.31,-182.3,-139.36,-142.45
38.84,612.0,-7148.0,-16100.0,-174.58,-178.29,-156.06,-155.68
38.92,228.0,-3884.0,-17172.0,-178.32,-182.07,-167.26,-168.75
38.99,684.0,-1704.0,-17688.0,-176.94,-180.55,-174.5,-181.06
39.06,216.0,2460.0,-17664.0,-189.22,-192.24,172.07,165.75
39.13,292.0,6672.0,-16392.0,-165.95,-168.39,157.85,154.45
39.2,428.0,10620.0,-14028.0,-171.37,-173.51,142.87,142.42
39.27,692.0,12596.0,-12168.0,-180.66,-182.76,134.01,130.0
39.34,660.0,14064.0,-9452.0,-176.99,-178.73,123.9,118.09
39.41,608.0,15432.0,-6532.0,-184.95,-186.17,112.94,106.01
39.48,108.0,16824.0,-668.0,-182.79,-183.39,92.27,93.12
39.55,396.0,16444.0,872.0,-174.32,-174.99,86.96,82.11
39.61,472.0,15032.0,4704.0,-167.6,-167.84,72.62,71.31
39.68,512.0,13408.0,7636.0,-175.08,-175.2,60.34,59.74
39.75,208.0,11940.0,9984.0,-177.78,-177.85,50.1,48.16
39.81,548.0,9292.0,12276.0,-187.82,-187.72,37.12,35.85
39.88,332.0,6616.0,13824.0,-177.68,-177.48,25.58,24.22
39.95,324.0,2528.0,14672.0,-169.98,-169.66,9.78,12.6
40.01,352.0,-1704.0,15212.0,-168.92,-168.85,-6.39,0.7
40.08,560.0,-4884.0,14336.0,-184.37,-184.91,-18.81,-12.35
40.15,512.0,-9072.0,12492.0,-172.55,-173.64,-35.99,-25.69
40.22,536.0,-10164.0,11148.0,-172.78,-174.77,-42.36,-38.35
40.29,396.0,-13044.0,8984.0,-173.95,-176.28,-55.44,-51.32
40.36,716.0,-14708.0,5932.0,-173.11,-175.8,-68.03,-64.04
40.43,648.0,-15940.0,2704.0,-181.22,-184.27,-80.37,-77.26
40.5,744.0,-16672.0,-1928.0,-177.59,-180.91,-96.6,-90.6
40.57,412.0,-16452.0,-4000.0,-180.7,-184.55,-103.67,-103.64
40.64,636.0,-15244.0,-8004.0,-165.02,-168.87,-117.7,-116.14
40.71,400.0,-13496.0,-11224.0,-171.08,-175.08,-129.75,-128.98
40.79,492.0,-10876.0,-13736.0,-179.47,-183.53,-141.63,-142.44
40.86,584.0,-7192.0,-15792.0,-174.6,-178.59,-155.51,-155.63
40.93,544.0,-4248.0,-17212.0,-177.45,-181.43,-166.14,-168.54
41.01,452.0,-964.0,-17756.0,-176.47,-180.22,-176.89,-181.13
41.08,560.0,2172.0,-17476.0,-191.16,-194.54,172.92,165.83
41.15,568.0,6672.0,-16388.0,-167.23,-169.96,157.85,154.42
41.22,316.0,11000.0,-13864.0,-172.07,-174.49,141.57,142.18
41.29,340.0,13344.0,-11952.0,-181.15,-183.63,131.85,129.49
41.36,184.0,13824.0,-9680.0,-178.44,-180.7,125.0,117.64
41.43,200.0,16704.0,-5144.0,-184.85,-186.46,107.12,104.93
41.5,216.0,16828.0,-872.0,-183.49,-184.9,92.97,92.14
41.57,376.0,16056.0,1024.0,-173.95,-175.29,86.35,81.16
41.63,252.0,15176.0,4612.0,-167.9,-168.78,73.1,70.3
41.7,368.0,13200.0,7628.0,-175.29,-175.92,59.98,58.76
41.77,532.0,12048.0,10084.0,-177.68,-178.21,50.07,47.27
41.83,444.0,9424.0,12252.0,-187.6,-187.89,37.57,34.91
41.9,272.0,6140.0,13628.0,-175.25,-175.3,24.25,23.38
41.97,332.0,2688.0,14724.0,-169.67,-169.65,10.35,11.91
42.03,600.0,-1384.0,15268.0,-168.27,-168.38,-5.18,0.08
42.1,468.0,-5100.0,14384.0,-183.63,-184.2,-19.52,-12.94
42.17,520.0,-9172.0,12276.0,-172.48,-173.62,-36.77,-26.31
42.24,608.0,-10388.0,11212.0,-175.16,-177.2,-42.82,-39.1
42.31,388.0,-13132.0,8984.0,-173.62,-175.99,-55.62,-51.99
42.38,484.0,-14856.0,6028.0,-172.56,-175.24,-67.91,-64.59
42.45,580.0,-16120.0,2676.0,-180.63,-183.6,-80.57,-77.72
42.52,1056.0,-16972.0,-1896.0,-177.63,-180.85,-96.37,-90.98
42.59,460.0,-16240.0,-4120.0,-185.58,-189.28,-104.24,-104.53
42.66,516.0,-15260.0,-8060.0,-163.64,-167.32,-117.84,-116.84
42.73,660.0,-13260.0,-11292.0,-170.18,-173.95,-130.42,-129.61
42.81,412.0,-10964.0,-13792.0,-178.14,-181.98,-141.52,-142.89
42.88,492.0,-6908.0,-15852.0,-174.64,-178.36,-156.45,-156.12
42.96,380.0,-3788.0,-16972.0,-177.88,-181.62,-167.42,-169.13
43.03,620.0,-1428.0,-17588.0,-176.27,-179.86,-175.36,-181.45
43.1,356.0,2452.0,-17580.0,-189.05,-192.09,172.06,165.42
43.17,328.0,6624.0,-16380.0,-165.69,-168.13,157.98,154.19
43.24,516.0,10224.0,-14204.0,-170.6,-172.7,144.25,142.39
43.31,440.0,11652.0,-12680.0,-180.6,-182.53,137.42,130.37
43.38,440.0,14020.0,-9732.0,-176.83,-178.13,124.77,118.56
43.45,564.0,15396.0,-6208.0,-184.17,-184.91,111.96,106.38
43.52,12.0,16700.0,-788.0,-182.81,-183.05,92.7,93.52
43.59,260.0,15848.0,1084.0,-175.64,-175.95,86.09,82.48
43.65,432.0,15060.0,4548.0,-166.79,-166.78,73.2,71.6
43.72,420.0,13356.0,7736.0,-175.49,-175.34,59.92,59.95
43.79,544.0,12312.0,10044.0,-177.84,-177.7,50.79,48.43
43.85,188.0,9052.0,12240.0,-188.62,-188.27,36.48,35.8
43.92,344.0,6556.0,13592.0,-177.3,-176.89,25.75,24.24
43.99,536.0,2364.0,14784.0,-169.22,-168.68,9.08,12.6
44.05,392.0,-1620.0,15288.0,-167.98,-167.75,-6.05,0.8
44.12,632.0,-5080.0,14376.0,-184.43,-184.78,-19.46,-12.33
44.19,280.0,-9060.0,12396.0,-173.44,-174.41,-36.16,-25.74
44.26,508.0,-9868.0,11544.0,-177.88,-179.76,-40.52,-38.5
44.33,496.0,-13060.0,8968.0,-175.85,-177.9,-55.52,-51.39
44.4,504.0,-14664.0,6064.0,-174.24,-176.65,-67.53,-64.11
44.47,584.0,-15460.0,3048.0,-180.64,-183.36,-78.85,-77.09
44.54,912.0,-17008.0,-2068.0,-179.59,-182.46,-96.93,-90.58
44.61,500.0,-16284.0,-4336.0,-182.34,-185.76,-104.91,-103.84
44.68,456.0,-15084.0,-7872.0,-164.87,-168.39,-117.56,-116.26
44.75,456.0,-13348.0,-11080.0,-169.31,-172.94,-129.7,-128.95
44.83,784.0,-9980.0,-14160.0,-179.27,-182.97,-144.82,-142.74
44.9,404.0,-7844.0,-15536.0,-177.71,-181.6,-153.21,-155.65
44.97,424.0,-4396.0,-17120.0,-183.47,-187.15,-165.6,-168.87
45.05,484.0,-96.0,-17736.0,-178.77,-182.15,-179.69,-181.86
45.12,660.0,3512.0,-17592.0,-186.72,-189.9,168.71,165.17
45.19,500.0,6752.0,-16528.0,-168.64,-171.5,157.78,153.73
45.26,420.0,9548.0,-14596.0,-172.26,-174.76,146.81,142.15
45.33,380.0,12216.0,-12192.0,-173.53,-175.61,134.94,130.48
45.4,376.0,14152.0,-9272.0,-180.09,-181.77,123.23,118.25
45.47,44.0,15928.0,-5496.0,-179.23,-180.46,109.04,106.05
45.54,588.0,16136.0,-2424.0,-186.42,-187.39,98.54,93.8
45.6,332.0,16448.0,720.0,-171.06,-171.61,87.49,82.8
45.67,232.0,15456.0,4072.0,-170.59,-170.72,75.24,72.05
45.73,240.0,13816.0,7444.0,-178.6,-178.45,61.68,60.36
45.8,372.0,12240.0,10172.0,-180.78,-180.51,50.27,48.57
45.87,596.0,8868.0,12084.0,-179.28,-178.87,36.27,36.47
45.93,360.0,5892.0,13812.0,-167.67,-167.28,23.1,25.11
46.0,340.0,3496.0,14876.0,-172.94,-172.72,13.23,13.59
46.07,304.0,-1088.0,14952.0,-172.05,-171.86,-4.16,1.48
46.13,456.0,-3572.0,14336.0,-187.94,-188.24,-13.99,-11.33
46.2,284.0,-6580.0,13140.0,-175.03,-175.56,-26.6,-23.88
46.27,476.0,-10792.0,11348.0,-164.5,-165.27,-43.56,-36.28
46.34,896.0,-12088.0,9524.0,-173.31,-174.71,-51.77,-48.97
46.41,624.0,-14392.0,6264.0,-175.72,-177.36,-66.48,-61.88
46.48,568.0,-15584.0,3312.0,-183.48,-185.53,-78.0,-75.15
46.55,340.0,-16516.0,-1124.0,-180.78,-183.08,-93.89,-88.56
46.62,444.0,-16528.0,-4364.0,-173.94,-176.71,-104.79,-101.46
46.7,516.0,-15056.0,-7604.0,-166.94,-170.0,-116.8,-114.17
46.77,500.0,-13688.0,-10960.0,-172.05,-175.35,-128.68,-127.14
46.84,484.0,-10692.0,-13648.0,-172.7,-176.14,-141.92,-140.35
46.92,476.0,-8804.0,-15660.0,-179.42,-183.0,-150.66,-153.52
46.99,576.0,-5996.0,-17320.0,-185.39,-188.71,-160.9,-166.54
47.06,352.0,-2256.0,-17600.0,-179.85,-182.66,-172.7,-179.03
47.14,272.0,2632.0,-17376.0,-180.18,-182.42,171.39,168.1
47.21,432.0,6732.0,-16340.0,-169.24,-171.18,157.61,156.34
47.28,312.0,9488.0,-14800.0,-173.04,-174.86,147.34,144.51
47.35,252.0,12204.0,-12072.0,-172.46,-174.03,134.69,132.65
47.42,340.0,14376.0,-9128.0,-180.9,-182.29,122.41,120.05
47.49,556.0,15784.0,-5676.0,-177.55,-178.72,109.78,107.84
47.56,556.0,16076.0,-2868.0,-187.11,-188.11,100.12,95.34
47.62,324.0,16236.0,684.0,-170.85,-171.43,87.59,84.02
47.69,328.0,15344.0,4192.0,-170.5,-170.75,74.72,73.07
47.76,400.0,13716.0,7428.0,-178.5,-178.61,61.56,61.24
47.82,144.0,12068.0,10088.0,-180.28,-180.37,50.11,49.35
47.89,612.0,8964.0,12064.0,-178.67,-178.69,36.61,37.21
47.96,364.0,5804.0,13668.0,-169.11,-169.18,23.01,25.64
48.02,188.0,3324.0,14464.0,-173.26,-173.56,12.94,13.98
48.09,412.0,-952.0,14880.0,-171.99,-172.38,-3.66,1.85
48.15,280.0,-3472.0,14412.0,-188.53,-189.4,-13.55,-10.83
48.22,556.0,-5660.0,13840.0,-175.56,-176.66,-22.24,-23.03
48.29,672.0,-10800.0,11204.0,-164.98,-166.01,-43.95,-35.61
48.36,652.0,-12032.0,9540.0,-173.91,-175.67,-51.59,-48.41
48.43,304.0,-14456.0,6360.0,-176.57,-178.61,-66.25,-61.44
48.5,392.0,-15812.0,2976.0,-182.93,-185.39,-79.34,-74.89
48.57,300.0,-16300.0,-924.0,-182.1,-184.95,-93.24,-88.37
48.64,776.0,-16376.0,-4140.0,-172.76,-176.04,-104.19,-101.01
48.72,596.0,-15172.0,-7408.0,-167.5,-171.07,-116.02,-113.76
48.79,380.0,-13484.0,-10672.0,-172.46,-176.22,-128.36,-126.79
48.86,408.0,-10820.0,-13608.0,-171.68,-175.58,-141.51,-139.96
48.94,604.0,-8800.0,-15588.0,-180.84,-184.88,-150.55,-153.28
49.01,516.0,-3960.0,-17456.0,-184.64,-188.44,-167.22,-167.03
49.08,740.0,-420.0,-17652.0,-179.63,-183.44,-178.64,-180.19
49.15,536.0,2948.0,-17556.0,-176.52,-180.19,170.47,167.29
49.22,444.0,6244.0,-16500.0,-171.05,-174.43,159.27,155.6
49.29,476.0,7608.0,-15596.0,-174.56,-177.62,154.0,144.44
49.36,216.0,12196.0,-12620.0,-171.54,-173.74,135.98,132.75
49.43,256.0,14716.0,-8864.0,-182.44,-184.35,121.06,119.85
49.5,300.0,15500.0,-6640.0,-177.61,-179.41,113.19,108.01
49.57,540.0,16104.0,-3576.0,-186.37,-187.7,102.52,95.78
49.64,352.0,16152.0,716.0,-172.72,-173.46,87.46,84.29
49.71,264.0,15452.0,3872.0,-173.97,-174.43,75.93,73.23
49.77,528.0,14192.0,7028.0,-179.12,-179.34,63.65,61.57
49.84,84.0,11648.0,10264.0,-181.02,-181.06,48.61,49.43
49.91,320.0,9496.0,11924.0,-174.04,-174.14,38.53,37.94
49.97,156.0,6588.0,13400.0,-164.97,-165.02,26.18,26.89
50.04,252.0,3640.0,14668.0,-174.88,-174.99,13.94,15.12
50.11,436.0,476.0,14628.0,-174.44,-174.66,1.86,3.33
50.17,436.0,-2388.0,14888.0,-189.04,-189.38,-9.11,-8.68
50.24,316.0,-6136.0,14236.0,-178.02,-178.4,-23.32,-20.99
50.31,272.0,-10028.0,11772.0,-166.27,-166.85,-40.43,-33.46
50.38,344.0,-12160.0,9752.0,-165.8,-166.99,-51.27,-45.92
50.45,708.0,-14456.0,6748.0,-180.05,-181.7,-64.98,-59.26
50.52,420.0,-15840.0,3004.0,-177.37,-179.53,-79.26,-72.58
50.59,492.0,-16448.0,1792.0,-185.61,-188.35,-83.78,-85.48
50.66,496.0,-16212.0,-3920.0,-170.77,-173.36,-103.59,-98.22
50.73,472.0,-15512.0,-7176.0,-171.21,-174.28,-114.83,-111.18
50.8,748.0,-13624.0,-10384.0,-176.46,-179.84,-127.31,-124.61
50.88,424.0,-11812.0,-13168.0,-172.08,-175.71,-138.11,-137.66
50.95,400.0,-7128.0,-15964.0,-182.49,-186.15,-155.94,-151.93
51.02,332.0,-4232.0,-17348.0,-178.31,-182.33,-166.29,-165.33
51.09,376.0,-1896.0,-17940.0,-179.59,-183.7,-173.97,-178.18
51.17,408.0,1768.0,-17644.0,-170.84,-174.57,174.28,169.7
51.24,384.0,5668.0,-16592.0,-173.56,-176.88,161.14,157.8
51.31,368.0,9192.0,-14764.0,-178.08,-181.1,148.09,145.51
51.38,472.0,11408.0,-13024.0,-172.27,-175.05,138.78,133.93
51.45,540.0,14148.0,-9576.0,-185.66,-188.01,124.09,121.02
51.52,400.0,15656.0,-6680.0,-181.11,-183.19,113.11,108.8
51.59,200.0,16572.0,-3308.0,-185.49,-187.18,101.29,96.38
51.66,316.0,16444.0,448.0,-173.59,-174.84,88.44,84.84
51.72,172.0,15540.0,3596.0,-175.56,-176.49,76.97,73.72
51.79,380.0,14992.0,6436.0,-183.41,-184.06,66.77,62.07
51.85,620.0,11416.0,10032.0,-184.92,-185.16,48.69,49.65
51.92,712.0,9160.0,11980.0,-173.0,-173.32,37.4,37.89
51.99,236.0,6948.0,13624.0,-167.04,-167.4,27.02,26.8
52.05,264.0,3188.0,14736.0,-177.8,-178.14,12.21,14.66
52.12,356.0,1676.0,15284.0,-177.36,-177.91,6.26,3.21
52.19,444.0,-2760.0,15124.0,-183.47,-183.76,-10.34,-8.79
52.25,952.0,-7224.0,13144.0,-171.72,-172.14,-28.79,-21.47
52.32,468.0,-8964.0,12208.0,-167.27,-168.33,-36.29,-33.53
52.39,608.0,-12520.0,9080.0,-166.76,-168.05,-54.05,-46.19
52.46,612.0,-14580.0,6708.0,-182.65,-184.63,-65.29,-59.72
52.53,620.0,-15420.0,4176.0,-178.15,-180.61,-74.85,-72.58
52.6,528.0,-16708.0,1272.0,-187.56,-190.23,-85.65,-85.8
52.67,648.0,-16560.0,-2972.0,-168.61,-171.27,-100.17,-97.99
52.74,532.0,-15604.0,-6904.0,-172.92,-175.76,-113.87,-110.96
52.82,568.0,-13980.0,-10332.0,-177.01,-180.11,-126.47,-124.35
52.89,856.0,-11944.0,-13044.0,-173.44,-176.74,-137.52,-137.42
52.96,340.0,-7144.0,-16116.0,-185.99,-189.29,-156.09,-151.94
53.04,636.0,-5152.0,-17000.0,-169.79,-173.47,-163.14,-164.41
53.11,628.0,-2144.0,-18144.0,-183.5,-187.06,-173.26,-177.5
53.18,796.0,1596.0,-17700.0,-172.39,-175.57,174.85,170.3
53.25,364.0,5208.0,-16920.0,-174.96,-177.73,162.89,158.48
53.32,392.0,10704.0,-14508.0,-179.63,-182.0,143.58,145.54
53.39,220.0,11544.0,-13112.0,-173.8,-176.35,138.64,133.7
53.46,284.0,13780.0,-10132.0,-187.17,-189.27,126.33,120.98
53.53,20.0,15848.0,-6516.0,-181.45,-183.07,112.35,108.51
53.6,540.0,16400.0,-3288.0,-181.0,-182.28,101.34,96.61
53.67,304.0,16220.0,304.0,-174.19,-175.05,88.93,85.09
53.74,468.0,15280.0,3812.0,-177.38,-177.9,75.99,73.74
53.8,168.0,13668.0,6760.0,-182.26,-182.58,63.68,61.84
53.87,524.0,11596.0,9780.0,-185.98,-186.14,49.86,49.52
53.94,376.0,9816.0,11764.0,-172.0,-172.13,39.84,38.27
54.0,320.0,7140.0,13616.0,-168.29,-168.28,27.67,27.16
54.07,400.0,3368.0,14660.0,-180.15,-180.1,12.94,14.95
54.14,484.0,776.0,15204.0,-179.4,-179.52,2.92,3.01
54.2,448.0,-3072.0,14644.0,-177.83,-177.96,-11.85,-8.62
54.27,340.0,-6832.0,13476.0,-171.36,-171.76,-26.88,-21.09
54.34,688.0,-8392.0,12524.0,-170.84,-171.74,-33.82,-33.13
54.41,612.0,-12864.0,9024.0,-169.63,-170.6,-54.95,-46.09
54.48,516.0,-14044.0,7076.0,-183.41,-185.15,-63.26,-59.44
54.55,504.0,-15632.0,3716.0,-176.5,-178.57,-76.63,-72.39
54.62,552.0,-16244.0,-408.0,-172.57,-175.01,-91.44,-85.33
54.69,808.0,-16328.0,-3044.0,-173.9,-176.88,-100.56,-97.96
54.76,456.0,-15728.0,-7128.0,-175.15,-178.35,-114.38,-111.16
54.83,552.0,-14372.0,-10144.0,-181.72,-185.21,-125.22,-124.71
54.9,392.0,-11796.0,-12928.0,-172.47,-176.01,-137.62,-137.71
54.98,512.0,-7684.0,-15580.0,-186.41,-189.94,-153.75,-151.98
55.05,388.0,-5160.0,-16920.0,-168.11,-171.8,-163.04,-164.33
55.12,484.0,-1884.0,-17804.0,-183.96,-187.54,-173.96,-177.53
55.2,564.0,1856.0,-17880.0,-173.53,-176.79,174.07,170.1
55.27,584.0,5428.0,-16864.0,-175.9,-178.79,162.16,158.15
55.34,356.0,11084.0,-14112.0,-180.25,-182.78,141.85,145.01
55.41,528.0,11852.0,-12872.0,-174.9,-177.71,137.36,132.99
55.48,252.0,13548.0,-10620.0,-188.81,-191.23,128.09,120.44
55.55,316.0,15208.0,-6888.0,-176.18,-177.92,114.37,108.58
55.62,356.0,16208.0,-3000.0,-173.29,-174.51,100.49,96.88
55.69,296.0,16124.0,364.0,-168.2,-169.09,88.71,85.66
55.75,348.0,15572.0,3360.0,-176.55,-177.17,77.82,74.5
55.82,312.0,14472.0,6444.0,-182.99,-183.32,66.0,62.73
55.89,440.0,13476.0,8404.0,-187.63,-187.68,58.05,51.12
55.95,420.0,9940.0,11580.0,-169.11,-168.55,40.64,40.0
56.02,288.0,6716.0,13456.0,-169.59,-168.97,26.52,28.53
56.08,316.0,3284.0,14900.0,-180.45,-180.01,12.43,16.12
56.15,496.0,964.0,15160.0,-180.0,-179.88,3.64,4.11
56.21,364.0,-3584.0,14808.0,-175.56,-175.48,-13.61,-7.69
56.28,576.0,-6872.0,13260.0,-168.37,-168.79,-27.4,-20.14
56.35,448.0,-8544.0,12684.0,-171.44,-172.5,-33.96,-32.34
56.42,444.0,-12932.0,9068.0,-170.26,-171.45,-54.96,-45.44
56.49,320.0,-14164.0,7244.0,-183.71,-185.73,-62.91,-58.86
56.56,876.0,-15468.0,3708.0,-177.11,-179.48,-76.52,-71.92
56.63,500.0,-15920.0,-424.0,-170.49,-173.27,-91.53,-84.82
56.7,564.0,-16236.0,-2800.0,-173.84,-177.21,-99.78,-97.44
56.77,484.0,-15516.0,-6944.0,-175.79,-179.37,-114.11,-110.55
56.84,668.0,-14304.0,-9932.0,-181.31,-185.2,-124.77,-124.13
56.92,344.0,-11436.0,-12824.0,-172.87,-176.82,-138.27,-137.15
56.99,532.0,-9524.0,-14716.0,-185.9,-189.95,-147.09,-150.72
57.06,460.0,-5680.0,-16592.0,-173.29,-177.01,-161.1,-163.33
57.14,340.0,-2196.0,-17512.0,-166.71,-170.23,-172.85,-175.41
57.21,392.0,2388.0,-17444.0,-173.52,-176.81,172.2,171.77
57.28,488.0,5644.0,-17144.0,-177.44,-180.69,161.78,159.46
57.35,316.0,9556.0,-13620.0,-179.94,-182.98,144.95,146.51
57.42,600.0,10784.0,-13600.0,-175.35,-178.54,141.59,134.92
57.49,444.0,12420.0,-11172.0,-190.44,-193.03,131.97,122.47
57.56,328.0,15456.0,-7448.0,-174.38,-176.12,115.73,110.65
57.63,316.0,16708.0,-2968.0,-167.95,-169.23,100.07,98.99
57.7,496.0,15624.0,-108.0,-167.57,-168.76,90.4,87.75
57.77,476.0,15352.0,3396.0,-178.04,-178.99,77.53,76.05
57.83,252.0,14388.0,6776.0,-180.52,-181.34,64.78,64.09
57.9,432.0,13836.0,7588.0,-189.66,-190.42,61.26,52.52
57.96,300.0,10336.0,11740.0,-165.53,-165.52,41.36,41.51
58.03,424.0,6744.0,13656.0,-170.19,-170.2,26.28,29.6
58.1,544.0,3340.0,14500.0,-181.8,-182.1,12.97,17.01
58.17,408.0,-428.0,15360.0,-181.55,-182.2,-1.6,4.2
58.23,376.0,-3824.0,14808.0,-174.63,-175.79,-14.48,-8.06
58.3,428.0,-6640.0,13432.0,-165.6,-167.31,-26.31,-20.26
58.37,484.0,-8404.0,12536.0,-171.13,-173.36,-33.84,-32.49
58.44,632.0,-13032.0,8860.0,-170.05,-172.39,-55.79,-45.73
58.51,524.0,-14136.0,7220.0,-183.71,-186.94,-62.94,-59.2
58.58,892.0,-15600.0,3704.0,-177.18,-180.74,-76.64,-72.31
58.65,592.0,-16304.0,-56.0,-168.13,-172.06,-90.2,-84.94
58.72,392.0,-16444.0,-2268.0,-175.56,-179.95,-97.85,-97.33
58.79,348.0,-15532.0,-6784.0,-176.85,-181.29,-113.59,-110.52
58.86,1224.0,-14064.0,-10264.0,-184.04,-188.75,-126.12,-124.48
58.93,436.0,-12912.0,-12556.0,-169.08,-173.94,-134.2,-137.15
59.01,348.0,-8444.0,-15132.0,-187.66,-192.25,-150.84,-151.3
59.08,528.0,-5452.0,-16840.0,-165.89,-170.44,-162.06,-163.53
59.15,456.0,-1888.0,-17396.0,-168.38,-172.8,-173.81,-175.85
59.23,592.0,2612.0,-17772.0,-173.7,-177.94,171.64,171.23
59.3,608.0,5376.0,-16688.0,-177.24,-181.44,162.14,158.99
59.37,308.0,9812.0,-14588.0,-178.82,-182.73,146.07,146.24
59.44,372.0,10036.0,-13944.0,-173.86,-177.79,144.26,135.02
59.51,492.0,12388.0,-12160.0,-188.97,-192.07,134.47,122.9
59.58,488.0,15216.0,-6884.0,-174.93,-177.0,114.34,110.83
59.65,292.0,16548.0,-3124.0,-168.15,-169.9,100.69,99.18
59.72,492.0,16184.0,152.0,-170.29,-171.91,89.46,87.62
59.78,436.0,15524.0,3328.0,-177.98,-179.43,77.9,76.12
59.85,72.0,14240.0,6752.0,-181.53,-182.82,64.63,64.04
59.91,256.0,13568.0,7944.0,-188.96,-190.21,59.65,52.5
59.98,264.0,10300.0,11380.0,-168.24,-168.87,42.15,41.37
60.05,424.0,6632.0,13556.0,-170.49,-171.04,26.07,29.41
60.11,424.0,3372.0,14796.0,-181.21,-182.05,12.84,16.83
60.18,236.0,356.0,15148.0,-180.79,-181.98,1.35,4.37
60.24,736.0,-3636.0,14568.0,-172.33,-173.78,-14.01,-7.41
60.31,664.0,-6612.0,13492.0,-164.1,-166.12,-26.11,-19.58
60.38,340.0,-8056.0,12628.0,-171.57,-174.16,-32.54,-31.79
60.45,672.0,-12808.0,9008.0,-170.7,-173.35,-54.88,-45.06
60.52,784.0,-13996.0,7140.0,-184.43,-187.93,-62.97,-58.67
60.59,836.0,-15276.0,3540.0,-176.99,-180.87,-76.95,-71.89
60.66,88.0,-16620.0,460.0,-166.1,-170.42,-88.41,-84.26
60.73,548.0,-16424.0,-2032.0,-176.31,-180.99,-97.05,-96.53
60.8,664.0,-15436.0,-6716.0,-177.4,-182.13,-113.51,-109.85
60.87,792.0,-13916.0,-10084.0,-184.3,-189.35,-125.93,-123.9
60.95,532.0,-12328.0,-12652.0,-171.5,-176.73,-135.74,-136.83
61.02,600.0,-9492.0,-14572.0,-188.69,-193.83,-146.92,-150.68
61.09,536.0,-5864.0,-16740.0,-165.09,-169.89,-160.69,-162.78
61.17,412.0,-2492.0,-17504.0,-168.69,-173.31,-171.9,-175.01
61.24,484.0,2412.0,-17816.0,-175.93,-180.26,172.29,171.91
61.31,528.0,5944.0,-16824.0,-178.75,-183.05,160.54,159.31
61.38,512.0,8088.0,-15256.0,-180.24,-184.43,152.07,147.09
61.45,488.0,10552.0,-14104.0,-175.93,-179.67,143.2,135.54
61.52,552.0,13216.0,-10936.0,-191.31,-194.37,129.61,122.67
61.59,164.0,15304.0,-7240.0,-174.1,-176.53,115.32,110.76
61.66,252.0,16284.0,-3116.0,-169.03,-171.06,100.83,99.06
61.73,308.0,16172.0,-296.0,-170.29,-172.16,91.05,87.68
61.79,168.0,15648.0,3128.0,-181.15,-182.71,78.7,75.9
61.86,428.0,13892.0,6312.0,-180.98,-182.3,65.56,63.98
61.93,464.0,13248.0,8140.0,-188.64,-189.82,58.43,52.15
61.99,496.0,10296.0,11304.0,-171.48,-172.11,42.33,40.9
62.06,216.0,6876.0,13552.0,-171.55,-172.06,26.9,29.02
62.13,436.0,4192.0,14512.0,-183.0,-183.69,16.11,16.74
62.19,604.0,-920.0,15120.0,-182.14,-182.88,-3.48,3.71
62.26,488.0,-3636.0,14600.0,-170.95,-172.32,-13.98,-8.24
62.33,356.0,-6644.0,13468.0,-162.51,-164.38,-26.26,-20.24
62.4,632.0,-8196.0,12748.0,-171.16,-173.55,-32.74,-32.36
62.47,724.0,-12940.0,9100.0,-169.56,-171.99,-54.88,-45.48
62.54,736.0,-14136.0,7040.0,-185.72,-188.96,-63.53,-59.17
62.61,332.0,-15212.0,4076.0,-177.51,-181.14,-75.0,-72.13
62.68,276.0,-16388.0,-168.0,-171.37,-175.25,-90.59,-85.02
62.75,524.0,-16472.0,-2960.0,-167.9,-172.27,-100.19,-97.36
62.82,476.0,-15764.0,-6912.0,-175.9,-180.52,-113.68,-110.68
62.89,1004.0,-14112.0,-10188.0,-182.44,-187.32,-125.83,-124.49
62.96,580.0,-12112.0,-12644.0,-171.5,-176.5,-136.23,-137.56
63.04,156.0,-8080.0,-15284.0,-187.48,-192.36,-152.14,-151.82
63.11,548.0,-5096.0,-16748.0,-166.24,-171.14,-163.08,-164.15
63.18,224.0,-1592.0,-17668.0,-170.3,-175.11,-174.85,-176.67
63.26,444.0,2420.0,-17652.0,-174.19,-178.84,172.19,170.51
63.33,336.0,5384.0,-16924.0,-177.33,-181.82,162.35,158.35
63.4,376.0,9472.0,-14792.0,-178.39,-182.52,147.37,145.82
63.47,264.0,9880.0,-13732.0,-173.81,-177.8,144.27,134.66
63.54,424.0,12476.0,-11788.0,-190.58,-193.71,133.38,122.54
63.61,76.0,15420.0,-7144.0,-174.05,-176.22,114.86,110.61
63.68,460.0,16132.0,-2912.0,-172.9,-174.69,100.23,98.8
63.74,296.0,16156.0,-32.0,-176.6,-178.26,90.11,86.97
63.81,216.0,15444.0,3024.0,-183.21,-184.59,78.92,75.36
63.88,384.0,14524.0,5940.0,-186.38,-187.45,67.76,63.44
63.94,584.0,12288.0,9284.0,-174.72,-175.4,52.93,51.91
64.01,256.0,9764.0,11648.0,-175.25,-175.85,39.97,40.2
64.08,308.0,6680.0,13668.0,-174.98,-175.6,26.05,28.27
64.14,508.0,5008.0,14280.0,-178.71,-179.52,19.33,16.67
64.21,292.0,772.0,14852.0,-174.21,-174.79,2.98,4.83
64.27,204.0,-2936.0,14692.0,-170.58,-171.32,-11.3,-6.57
64.34,700.0,-6144.0,13680.0,-163.02,-164.16,-24.19,-18.51
64.41,544.0,-8336.0,12668.0,-171.92,-173.56,-33.35,-30.89
64.48,488.0,-12452.0,9712.0,-170.22,-172.07,-52.05,-43.86
64.55,528.0,-13776.0,7492.0,-187.68,-190.24,-61.46,-57.58
64.62,700.0,-15596.0,4048.0,-167.07,-169.97,-75.45,-70.07
64.69,696.0,-16100.0,128.0,-169.44,-172.81,-89.54,-82.92
64.76,496.0,-16232.0,-2688.0,-166.94,-170.9,-99.4,-95.15
64.83,584.0,-15400.0,-6336.0,-177.8,-182.13,-112.36,-108.5
64.9,528.0,-13804.0,-10044.0,-183.53,-188.21,-126.04,-122.63
64.97,376.0,-12272.0,-12404.0,-174.9,-179.87,-135.31,-135.86
65.05,440.0,-10628.0,-14292.0,-189.29,-194.21,-143.36,-149.44
65.12,504.0,-5840.0,-16848.0,-167.9,-172.28,-160.88,-162.03
65.2,356.0,-2408.0,-17608.0,-168.85,-173.13,-172.21,-174.36
65.27,576.0,1268.0,-17656.0,-175.73,-179.8,175.89,172.92
65.34,560.0,6000.0,-17124.0,-179.63,-183.44,160.69,160.2
65.41,364.0,6240.0,-16432.0,-179.29,-183.06,159.21,148.77
65.48,432.0,10184.0,-14512.0,-175.66,-178.48,144.94,137.3
65.55,120.0,14380.0,-10440.0,-189.4,-191.55,125.98,124.0
65.62,356.0,15512.0,-7344.0,-171.55,-173.52,115.33,112.13
65.69,448.0,16624.0,-3260.0,-170.14,-171.82,101.1,100.26
65.76,460.0,16660.0,-204.0,-175.12,-176.73,90.7,88.25
65.82,244.0,15960.0,3056.0,-184.38,-185.77,79.16,76.28
65.89,276.0,14600.0,6244.0,-183.3,-184.43,66.84,64.34
65.96,596.0,12288.0,9092.0,-163.34,-164.25,53.5,53.43
66.02,404.0,9908.0,11532.0,-175.06,-175.97,40.67,41.62
66.09,404.0,6708.0,13540.0,-174.6,-175.59,26.35,29.57
66.16,376.0,5072.0,14428.0,-180.4,-181.67,19.37,17.7
66.22,332.0,1296.0,15100.0,-175.54,-176.67,4.91,5.85
66.29,432.0,-2976.0,14828.0,-170.28,-171.49,-11.35,-5.84
66.36,544.0,-6296.0,13856.0,-162.87,-164.55,-24.44,-17.91
66.43,544.0,-8356.0,12456.0,-171.98,-174.22,-33.86,-30.45
66.5,364.0,-12424.0,9516.0,-170.53,-173.08,-52.55,-43.59
66.57,496.0,-14172.0,7316.0,-186.43,-189.75,-62.7,-57.44
66.64,432.0,-15436.0,3844.0,-173.74,-177.52,-76.02,-70.48
66.7,540.0,-16420.0,60.0,-169.03,-173.3,-89.79,-83.34
66.77,588.0,-16568.0,-2552.0,-167.98,-172.82,-98.76,-95.41
66.84,508.0,-15384.0,-6368.0,-177.93,-183.06,-112.49,-108.8
66.92,716.0,-13784.0,-10256.0,-184.73,-190.18,-126.65,-123.09
66.99,724.0,-12200.0,-12796.0,-172.17,-177.94,-136.37,-136.26
67.06,196.0,-11344.0,-14008.0,-189.73,-195.5,-141.0,-149.62
67.14,580.0,-5840.0,-16780.0,-165.98,-170.98,-160.81,-162.09
67.21,180.0,-2340.0,-17568.0,-170.95,-175.84,-172.41,-174.62
67.28,268.0,2012.0,-17864.0,-175.09,-179.78,173.57,172.43
67.35,704.0,5644.0,-16916.0,-178.17,-182.75,161.55,159.9
67.42,620.0,9244.0,-14936.0,-182.75,-187.19,148.25,147.02
67.49,312.0,11252.0,-12796.0,-178.69,-183.01,138.67,134.76
67.56,472.0,13284.0,-10416.0,-192.24,-196.21,128.1,121.69
67.63,432.0,15276.0,-7024.0,-170.34,-173.75,114.69,109.99
67.7,420.0,16212.0,-3436.0,-167.66,-170.65,101.97,98.54
67.77,284.0,16092.0,-532.0,-168.24,-170.92,91.89,87.38
67.84,328.0,15680.0,2992.0,-180.69,-182.96,79.2,75.68
67.91,472.0,13852.0,6456.0,-179.57,-181.54,65.01,63.77
67.97,596.0,13504.0,7816.0,-189.27,-191.12,59.94,52.05
68.04,440.0,10180.0,11560.0,-169.06,-170.23,41.37,40.81
68.11,248.0,6804.0,13480.0,-171.85,-172.97,26.78,28.87
68.17,352.0,4088.0,14392.0,-182.84,-184.14,15.86,16.55
68.24,628.0,-660.0,15148.0,-181.84,-183.2,-2.49,3.63
68.3,680.0,-3668.0,14576.0,-172.49,-174.38,-14.13,-8.45
68.37,640.0,-6628.0,13260.0,-163.85,-166.24,-26.56,-20.57
68.44,412.0,-8180.0,12560.0,-171.15,-174.05,-33.08,-32.72
68.51,628.0,-12816.0,9240.0,-170.52,-173.45,-54.21,-45.82
68.58,796.0,-14148.0,7288.0,-184.75,-188.41,-62.75,-59.35
68.65,736.0,-15396.0,3600.0,-177.04,-181.0,-76.84,-72.49
68.72,264.0,-16452.0,8.0,-169.18,-173.52,-89.97,-85.16
68.79,472.0,-16540.0,-2348.0,-169.99,-174.76,-98.08,-96.9
68.86,544.0,-15380.0,-6444.0,-177.34,-182.2,-112.73,-110.1
68.93,752.0,-13972.0,-10052.0,-182.28,-187.38,-125.73,-123.97
69.0,624.0,-11680.0,-12680.0,-176.15,-181.4,-137.35,-137.38
69.08,296.0,-11088.0,-14468.0,-186.97,-192.22,-142.53,-150.57
69.15,432.0,-5532.0,-16828.0,-174.4,-178.94,-161.8,-163.57
69.23,448.0,-2312.0,-17620.0,-167.6,-171.97,-172.52,-175.69
69.3,224.0,2684.0,-17640.0,-176.2,-180.29,171.35,171.2
69.37,276.0,5920.0,-16860.0,-179.19,-183.26,160.65,158.67
69.44,572.0,7140.0,-15020.0,-179.23,-183.12,154.58,146.89
69.51,580.0,9876.0,-14388.0,-174.9,-178.11,145.53,135.73
69.58,400.0,12900.0,-10424.0,-190.95,-193.27,128.94,123.01
69.65,284.0,15516.0,-6960.0,-173.02,-174.81,114.16,111.04
69.72,248.0,16588.0,-3148.0,-170.05,-171.56,100.75,99.27
69.79,196.0,16304.0,-328.0,-172.76,-174.14,91.15,87.76
69.85,232.0,15788.0,2940.0,-184.06,-185.15,79.45,75.9
69.92,160.0,15004.0,6368.0,-184.39,-185.16,67.0,63.98
69.99,304.0,12264.0,8940.0,-164.5,-165.0,53.91,53.12
70.05,528.0,9940.0,11584.0,-174.39,-174.83,40.63,41.4
70.12,492.0,6628.0,13440.0,-174.21,-174.72,26.25,29.41
70.19,184.0,4980.0,14328.0,-181.4,-182.18,19.17,17.51
70.25,400.0,596.0,15084.0,-178.2,-178.83,2.26,5.26
70.32,464.0,-2192.0,14964.0,-170.89,-171.78,-8.33,-5.89
70.38,368.0,-5352.0,14436.0,-167.98,-169.08,-20.34,-17.62
70.45,504.0,-9480.0,12444.0,-171.02,-172.36,-37.3,-30.45
70.52,604.0,-11772.0,10128.0,-169.02,-170.95,-49.29,-43.1
70.59,580.0,-13640.0,7616.0,-189.25,-191.72,-60.82,-57.11
70.66,560.0,-15472.0,4168.0,-163.43,-166.22,-74.92,-69.37
70.73,564.0,-16280.0,680.0,-165.9,-169.19,-87.61,-81.86
70.8,684.0,-16460.0,-2400.0,-179.01,-182.8,-98.3,-94.81
70.87,448.0,-15524.0,-5944.0,-178.79,-182.89,-110.95,-108.09
70.94,376.0,-13468.0,-10064.0,-185.07,-189.42,-126.77,-122.43
71.02,600.0,-12856.0,-12512.0,-173.72,-178.45,-134.22,-135.46
71.09,680.0,-9872.0,-14608.0,-191.24,-195.87,-145.95,-149.49
71.16,536.0,-5956.0,-16660.0,-166.17,-170.47,-160.33,-161.72
71.24,572.0,-2788.0,-17600.0,-169.12,-173.3,-171.0,-173.97
71.31,544.0,1152.0,-17628.0,-175.61,-179.52,176.26,173.33
71.38,424.0,5672.0,-17120.0,-179.27,-182.91,161.67,160.7
71.45,532.0,6876.0,-16052.0,-184.3,-187.86,156.81,148.65
71.52,652.0,10332.0,-14084.0,-180.33,-183.16,143.74,136.77
71.59,328.0,12700.0,-10428.0,-181.7,-183.91,129.39,124.39
71.66,448.0,15168.0,-7560.0,-170.92,-172.68,116.49,112.66
71.73,372.0,15708.0,-3692.0,-166.94,-168.35,103.23,101.19
71.8,344.0,16008.0,-692.0,-175.39,-176.62,92.48,89.28
71.87,28.0,15888.0,3656.0,-183.21,-184.16,77.04,77.05
71.93,620.0,14924.0,5372.0,-179.65,-180.6,70.2,65.8
72.0,488.0,12496.0,8880.0,-187.4,-187.96,54.6,53.45
72.07,332.0,10312.0,11184.0,-170.3,-170.76,42.68,42.17
72.13,404.0,7104.0,13340.0,-174.15,-174.56,28.04,30.13
72.2,480.0,4728.0,14352.0,-185.15,-185.75,18.23,17.84
72.27,628.0,-572.0,15116.0,-185.55,-186.11,-2.17,4.64
72.33,616.0,-3336.0,15224.0,-171.62,-172.77,-12.36,-7.26
72.4,380.0,-5744.0,14500.0,-163.87,-165.47,-21.61,-18.93
72.47,492.0,-8872.0,12608.0,-173.68,-175.51,-35.13,-31.58
72.54,540.0,-11456.0,10204.0,-174.09,-176.23,-48.31,-44.33
72.61,572.0,-13644.0,7628.0,-186.42,-188.9,-60.79,-58.03
72.68,504.0,-15520.0,4448.0,-173.4,-176.12,-74.01,-70.69
72.75,688.0,-16068.0,608.0,-165.22,-168.24,-87.83,-83.0
72.82,280.0,-16564.0,-2280.0,-174.87,-178.31,-97.84,-95.51
72.89,420.0,-15212.0,-6204.0,-178.46,-182.11,-112.19,-108.8
72.96,360.0,-13300.0,-10116.0,-185.42,-189.37,-127.26,-123.11
73.04,440.0,-12380.0,-12704.0,-172.34,-176.65,-135.74,-136.12
73.11,432.0,-11064.0,-14208.0,-190.2,-194.48,-142.09,-149.55
73.18,636.0,-5808.0,-16504.0,-165.72,-169.33,-160.61,-161.9
73.26,396.0,-2728.0,-17420.0,-168.27,-171.77,-171.1,-174.04
73.33,636.0,2568.0,-17720.0,-176.6,-179.83,171.75,172.74
73.4,476.0,6168.0,-17064.0,-179.4,-182.72,160.13,160.01
73.47,300.0,7188.0,-15564.0,-180.6,-183.9,155.21,148.1
73.54,380.0,10804.0,-14060.0,-176.18,-178.85,142.46,136.41
73.61,152.0,14628.0,-10068.0,-188.63,-190.75,124.54,123.09
73.68,404.0,15556.0,-7532.0,-173.23,-175.23,115.84,111.27
73.75,380.0,16804.0,-3168.0,-168.5,-170.09,100.68,99.56
73.82,332.0,16008.0,-360.0,-171.25,-172.74,91.29,88.11
73.88,284.0,15768.0,2940.0,-184.81,-186.02,79.44,76.17
73.95,296.0,14792.0,6460.0,-178.82,-179.74,66.41,64.47
74.02,176.0,12500.0,8908.0,-164.15,-164.9,54.52,53.63
74.08,436.0,10152.0,11416.0,-175.4,-176.07,41.65,41.9
74.15,460.0,6588.0,13580.0,-174.47,-175.17,25.88,29.61
74.22,152.0,5032.0,14384.0,-179.33,-180.35,19.28,17.81
74.28,352.0,1056.0,15108.0,-174.79,-175.68,4.0,5.9
74.35,284.0,-2908.0,14656.0,-170.81,-171.87,-11.22,-5.8
74.42,588.0,-6128.0,13780.0,-162.8,-164.33,-23.97,-17.81
74.49,496.0,-8176.0,12440.0,-172.94,-175.0,-33.31,-30.35
74.56,476.0,-12124.0,9672.0,-171.51,-173.83,-51.42,-43.43
74.63,456.0,-13988.0,7256.0,-187.28,-190.29,-62.58,-57.32
74.7,560.0,-15596.0,4220.0,-171.05,-174.52,-74.86,-70.06
74.77,680.0,-16368.0,640.0,-173.53,-177.42,-87.76,-83.0
74.83,460.0,-16464.0,-2796.0,-168.04,-172.35,-99.64,-95.34
74.9,536.0,-15476.0,-6420.0,-177.42,-182.11,-112.53,-108.69
74.98,684.0,-13844.0,-10008.0,-182.9,-187.93,-125.86,-122.76
75.05,500.0,-11800.0,-12620.0,-176.92,-182.22,-136.92,-136.31
75.13,428.0,-10816.0,-14572.0,-189.05,-194.4,-143.42,-149.86
75.2,448.0,-5676.0,-16948.0,-168.79,-173.57,-161.48,-162.55
75.27,360.0,-2396.0,-17528.0,-168.67,-173.35,-172.22,-174.85
75.35,380.0,1316.0,-17456.0,-176.18,-180.63,175.69,172.41
75.41,592.0,5840.0,-16884.0,-179.56,-183.7,160.92,159.76
75.48,520.0,7472.0,-15688.0,-179.28,-183.33,154.53,147.84
75.55,284.0,9792.0,-14616.0,-176.07,-179.51,146.18,136.56
75.62,192.0,14492.0,-10532.0,-189.37,-191.95,126.01,123.5
75.69,416.0,15340.0,-7456.0,-173.36,-175.71,115.92,111.61
75.76,432.0,16456.0,-3180.0,-167.95,-169.92,100.94,99.9
75.83,440.0,15712.0,-616.0,-168.66,-170.53,92.25,88.66
75.9,224.0,15876.0,2928.0,-183.56,-185.12,79.55,76.72
75.97,292.0,15024.0,5596.0,-184.73,-186.04,69.57,64.94
76.03,-152.0,12708.0,8800.0,-187.24,-188.14,55.3,52.75
76.1,340.0,10084.0,11516.0,-168.75,-169.43,41.21,41.3
76.17,368.0,6844.0,13564.0,-171.95,-172.64,26.77,29.33
76.23,396.0,3812.0,14468.0,-183.09,-184.0,14.76,16.85
76.3,584.0,-912.0,15188.0,-182.48,-183.57,-3.44,3.77
76.37,712.0,-3788.0,14464.0,-172.53,-174.24,-14.68,-8.37
76.43,292.0,-6560.0,13336.0,-163.55,-165.81,-26.19,-20.44
76.5,368.0,-8264.0,13004.0,-171.63,-174.4,-32.44,-32.56
76.57,624.0,-12872.0,9180.0,-171.04,-173.79,-54.5,-45.73
76.64,456.0,-13784.0,7464.0,-184.27,-187.78,-61.56,-59.11
76.71,216.0,-15336.0,3640.0,-175.29,-179.02,-76.65,-72.12
76.78,76.0,-16512.0,368.0,-165.25,-169.38,-88.72,-84.44
76.85,452.0,-16480.0,-1840.0,-177.57,-182.08,-96.37,-96.68
76.92,712.0,-14908.0,-6452.0,-178.52,-183.0,-113.4,-110.03
76.99,368.0,-13296.0,-10416.0,-185.99,-190.77,-128.07,-124.38
77.07,780.0,-11904.0,-12804.0,-166.26,-171.36,-137.09,-137.05
77.14,168.0,-10804.0,-13964.0,-188.72,-193.82,-142.27,-150.35
77.22,416.0,-5884.0,-16612.0,-164.98,-169.36,-160.5,-162.6
77.29,756.0,-2496.0,-17272.0,-167.42,-171.61,-171.78,-174.73
77.36,336.0,2612.0,-17676.0,-174.81,-178.73,171.59,172.18
77.43,256.0,5412.0,-16916.0,-178.52,-182.5,162.26,159.77
77.5,552.0,8136.0,-15172.0,-178.05,-181.8,151.8,147.63
77.57,560.0,9696.0,-14640.0,-175.47,-178.85,146.48,136.45
77.64,480.0,13672.0,-10660.0,-191.01,-193.49,127.94,123.53
77.71,144.0,15284.0,-7008.0,-172.46,-174.54,114.63,111.57
77.78,60.0,16412.0,-3172.0,-170.9,-172.71,100.94,99.69
77.85,604.0,15868.0,-680.0,-174.81,-176.51,92.45,88.3
77.91,364.0,15992.0,3244.0,-183.51,-184.84,78.53,76.3
77.98,152.0,15068.0,5220.0,-182.79,-183.92,70.89,64.83
78.05,-72.0,13172.0,8524.0,-189.34,-189.94,57.09,52.75
78.11,220.0,10156.0,11400.0,-168.26,-168.48,41.7,41.58
78.18,616.0,6696.0,13488.0,-172.37,-172.59,26.4,29.54
78.25,240.0,4268.0,14432.0,-183.41,-183.9,16.47,17.23
78.31,324.0,-1184.0,15192.0,-183.69,-184.25,-4.46,3.96
78.38,400.0,-3688.0,14420.0,-171.66,-172.94,-14.35,-8.26
78.45,444.0,-6624.0,13548.0,-162.9,-164.71,-26.06,-20.26
78.52,680.0,-8296.0,12712.0,-172.8,-175.11,-33.13,-32.52
78.59,520.0,-12084.0,9820.0,-172.39,-174.75,-50.9,-45.36
78.66,596.0,-13976.0,7388.0,-185.34,-188.18,-62.14,-58.86
78.73,564.0,-15228.0,4076.0,-174.95,-178.09,-75.02,-71.67
78.8,448.0,-16228.0,364.0,-166.27,-169.7,-88.72,-84.06
78.87,440.0,-16576.0,-2224.0,-172.02,-175.86,-97.64,-96.28
78.94,584.0,-15304.0,-6476.0,-177.46,-181.42,-112.94,-109.52
79.01,576.0,-13872.0,-10108.0,-184.01,-188.27,-126.08,-123.55
79.08,992.0,-12320.0,-12536.0,-173.29,-177.77,-135.5,-136.56
79.16,160.0,-10684.0,-14104.0,-189.28,-193.67,-142.86,-149.96
79.23,616.0,-5856.0,-16860.0,-165.62,-169.37,-160.85,-162.3
79.3,444.0,-2096.0,-17660.0,-169.6,-173.22,-173.23,-174.73
79.38,460.0,2376.0,-17800.0,-175.69,-179.18,172.4,172.24
79.45,692.0,5980.0,-16728.0,-178.79,-182.26,160.33,159.62
79.52,440.0,7812.0,-15292.0,-179.36,-182.76,152.94,147.57
79.59,444.0,9640.0,-14640.0,-175.77,-178.69,146.64,136.42
79.66,284.0,14320.0,-10400.0,-189.02,-191.02,125.99,123.43
79.73,332.0,15372.0,-7316.0,-173.2,-174.98,115.45,111.55
79.8,360.0,16596.0,-3324.0,-171.37,-172.8,101.33,99.71
79.87,444.0,16064.0,-432.0,-177.37,-178.65,91.54,87.91
79.93,68.0,15880.0,3236.0,-181.71,-182.68,78.48,76.08
80.0,516.0,14532.0,6236.0,-177.78,-178.53,66.77,64.68
80.06,172.0,13064.0,8412.0,-188.83,-189.4,57.22,52.66
80.13,356.0,10436.0,11284.0,-170.78,-170.95,42.76,41.46
80.2,548.0,6668.0,13472.0,-173.14,-173.19,26.33,29.39
80.26,252.0,4480.0,14308.0,-183.28,-183.61,17.39,17.22
80.33,272.0,-1116.0,15048.0,-184.06,-184.37,-4.24,3.96
80.4,500.0,-3700.0,14536.0,-172.25,-173.27,-14.28,-8.27
80.47,324.0,-6552.0,13908.0,-162.44,-163.98,-25.22,-20.13
80.54,512.0,-8180.0,12504.0,-172.33,-174.31,-33.19,-32.36
80.61,436.0,-12220.0,9412.0,-171.61,-173.67,-52.4,-45.32
80.67,352.0,-13896.0,7236.0,-185.51,-188.18,-62.49,-58.87
80.74,416.0,-15204.0,4176.0,-174.82,-177.81,-74.64,-71.62
80.81,632.0,-16312.0,520.0,-165.15,-168.4,-88.17,-83.87
80.88,484.0,-16716.0,-2092.0,-172.44,-176.07,-97.13,-96.07
80.95,544.0,-15348.0,-6640.0,-177.51,-181.24,-113.39,-109.38
81.03,608.0,-13900.0,-10228.0,-184.03,-188.11,-126.35,-123.44
81.1,952.0,-12216.0,-12580.0,-174.14,-178.48,-135.84,-136.54
81.17,120.0,-11060.0,-14140.0,-188.85,-193.13,-141.97,-149.82
81.25,432.0,-5880.0,-16940.0,-165.28,-168.86,-160.86,-162.14
81.32,640.0,-2344.0,-17440.0,-168.34,-171.8,-172.35,-174.39
81.39,260.0,2000.0,-17484.0,-174.98,-178.25,173.47,172.72
81.46,580.0,5540.0,-16732.0,-179.11,-182.32,161.68,160.2
81.53,544.0,7772.0,-15528.0,-178.73,-181.8,153.41,148.2
81.6,516.0,9676.0,-14624.0,-175.63,-178.24,146.51,136.99
81.67,328.0,13792.0,-10616.0,-191.52,-193.27,127.59,123.98
81.74,248.0,15372.0,-7104.0,-170.53,-171.95,114.8,112.15
81.81,460.0,16552.0,-3252.0,-173.82,-175.01,101.12,100.09
81.88,300.0,16488.0,-528.0,-181.89,-182.99,91.83,87.84
81.95,556.0,15648.0,3196.0,-182.94,-183.68,78.46,75.96
82.02,364.0,14756.0,5600.0,-184.86,-185.38,69.22,64.26
82.08,612.0,13128.0,7692.0,-189.67,-189.76,59.63,52.53
82.15,608.0,9952.0,11520.0,-167.44,-166.9,40.82,41.38
82.22,288.0,6840.0,13404.0,-172.34,-171.86,27.04,29.64
82.28,204.0,4464.0,14396.0,-183.11,-182.85,17.23,17.46
82.35,464.0,-864.0,15008.0,-183.08,-182.84,-3.29,4.37
82.41,416.0,-3684.0,14444.0,-171.95,-172.38,-14.31,-7.68
82.48,372.0,-6552.0,13444.0,-162.72,-163.71,-25.98,-19.67
82.55,748.0,-8220.0,12460.0,-172.28,-173.83,-33.41,-31.95
82.62,668.0,-12496.0,9484.0,-171.89,-173.56,-52.8,-44.98
82.69,656.0,-13776.0,7324.0,-185.12,-187.48,-62.0,-58.47
82.76,556.0,-15520.0,4124.0,-175.57,-178.24,-75.12,-71.34
82.83,456.0,-16688.0,352.0,-165.63,-168.62,-88.79,-83.71
82.9,588.0,-16364.0,-2024.0,-174.21,-177.65,-97.05,-96.01
82.97,632.0,-15232.0,-6432.0,-177.67,-181.2,-112.89,-109.26
83.04,708.0,-13924.0,-10240.0,-184.55,-188.4,-126.33,-123.36
83.12,896.0,-12292.0,-12672.0,-172.53,-176.64,-135.87,-136.35
83.19,344.0,-10252.0,-14208.0,-189.31,-193.39,-144.19,-149.92
83.26,416.0,-5912.0,-16984.0,-165.4,-168.96,-160.81,-162.23
83.34,812.0,-2204.0,-18292.0,-172.31,-175.73,-173.13,-174.82
83.41,468.0,2672.0,-17924.0,-175.89,-179.16,171.52,172.06
83.48,400.0,5884.0,-17000.0,-178.93,-182.26,160.91,159.53
83.55,436.0,8612.0,-15376.0,-178.79,-182.0,150.75,147.29
83.62,384.0,9972.0,-14160.0,-175.06,-177.95,144.85,136.02
83.69,492.0,12996.0,-10844.0,-192.59,-194.69,129.84,123.29
83.76,604.0,15456.0,-6612.0,-172.06,-173.58,113.16,111.25
83.83,348.0,16156.0,-2996.0,-175.21,-176.56,100.51,99.12
83.9,264.0,16268.0,-296.0,-181.12,-182.34,91.04,87.11
83.96,384.0,15780.0,3164.0,-183.66,-184.53,78.66,75.28
84.03,252.0,14752.0,5820.0,-187.45,-188.02,68.47,63.41
84.1,540.0,12080.0,9288.0,-174.29,-174.42,52.44,51.9
84.16,264.0,9532.0,11760.0,-174.35,-174.43,39.03,40.17
84.23,216.0,6732.0,13524.0,-173.91,-174.09,26.46,28.37
84.3,504.0,4736.0,14240.0,-178.82,-179.17,18.4,16.67
84.36,552.0,732.0,14968.0,-174.58,-174.78,2.8,4.82
84.43,448.0,-2696.0,14772.0,-171.35,-171.72,-10.34,-6.5
84.5,296.0,-6068.0,13604.0,-163.22,-163.92,-24.04,-18.41
84.56,472.0,-8340.0,12864.0,-171.37,-172.55,-32.96,-30.7
84.63,648.0,-12984.0,9292.0,-169.4,-170.78,-54.41,-43.88
84.7,544.0,-13804.0,7200.0,-186.11,-188.41,-62.45,-57.59
84.77,596.0,-15176.0,3684.0,-178.78,-181.5,-76.36,-70.89
84.84,724.0,-16420.0,-132.0,-179.85,-183.05,-90.46,-84.39
84.91,508.0,-16600.0,-2984.0,-166.95,-170.69,-100.19,-96.69
84.98,408.0,-15540.0,-6840.0,-176.02,-180.06,-113.76,-110.07
85.06,564.0,-14500.0,-10024.0,-181.78,-186.15,-124.66,-123.74
85.13,436.0,-11156.0,-13084.0,-173.67,-178.12,-139.55,-137.2
85.21,340.0,-8604.0,-14812.0,-186.6,-191.26,-149.85,-151.17
85.28,556.0,-6408.0,-16576.0,-171.78,-176.32,-158.86,-163.44
85.35,376.0,-1644.0,-17476.0,-168.08,-172.22,-174.63,-175.83
85.42,580.0,1604.0,-17572.0,-175.4,-179.43,174.78,171.52
85.49,504.0,5560.0,-16904.0,-177.19,-180.92,161.79,159.24
85.56,316.0,11260.0,-14112.0,-181.55,-185.05,141.41,145.78
85.63,304.0,12180.0,-12356.0,-176.55,-180.44,135.41,133.29
85.71,536.0,13420.0,-10860.0,-189.83,-193.53,128.98,120.65
85.78,368.0,15248.0,-7060.0,-176.02,-178.97,114.84,108.76
85.85,420.0,16080.0,-3564.0,-181.26,-183.67,102.5,96.7
85.91,260.0,16168.0,-152.0,-182.17,-184.06,90.54,84.8
85.98,532.0,15444.0,3080.0,-180.6,-181.98,78.72,73.39
86.05,484.0,14092.0,6792.0,-185.8,-186.71,64.27,61.35
86.11,496.0,13132.0,8804.0,-187.55,-188.2,56.16,49.65
86.18,308.0,9908.0,11912.0,-171.57,-171.65,39.75,38.42
86.25,420.0,7120.0,13604.0,-169.38,-169.35,27.63,27.22
86.31,568.0,2936.0,14880.0,-179.14,-179.07,11.16,14.86
86.38,500.0,1572.0,15064.0,-178.08,-178.33,5.96,3.34
86.44,572.0,-2932.0,14800.0,-178.97,-178.99,-11.21,-8.5
86.51,332.0,-6596.0,13804.0,-161.16,-161.42,-25.54,-20.21
86.58,352.0,-9016.0,12352.0,-167.9,-168.62,-36.13,-32.4
86.65,544.0,-12320.0,9520.0,-170.72,-171.76,-52.31,-45.22
86.72,620.0,-14444.0,6396.0,-185.7,-187.36,-66.12,-59.13
86.79,544.0,-15612.0,3688.0,-175.28,-177.55,-76.71,-72.06
86.86,388.0,-16540.0,48.0,-164.6,-167.28,-89.83,-84.38
86.93,840.0,-16272.0,-2856.0,-173.27,-176.43,-99.95,-96.68
87.0,480.0,-15784.0,-7028.0,-175.63,-179.08,-114.0,-109.85
87.07,548.0,-14632.0,-10180.0,-182.63,-186.45,-124.83,-123.58
87.15,320.0,-11028.0,-13228.0,-174.34,-178.27,-140.18,-137.14
87.22,420.0,-7240.0,-15860.0,-187.59,-191.78,-155.46,-151.78
87.29,464.0,-5396.0,-16744.0,-164.04,-168.56,-162.14,-163.85
87.37,536.0,-1096.0,-17512.0,-176.81,-181.18,-176.42,-176.97
87.44,272.0,2112.0,-17648.0,-173.49,-177.81,173.18,170.43
87.51,296.0,5264.0,-16764.0,-177.09,-181.16,162.57,158.34
87.58,520.0,10692.0,-14444.0,-177.76,-181.45,143.49,145.44
87.65,496.0,11872.0,-12328.0,-172.0,-175.87,136.08,133.34
87.72,268.0,13324.0,-10312.0,-188.2,-191.82,127.74,120.67
87.79,160.0,15916.0,-6520.0,-182.9,-185.89,112.28,108.05
87.86,324.0,16552.0,-3688.0,-185.31,-187.92,102.56,95.82
87.93,540.0,16476.0,188.0,-180.61,-182.62,89.35,83.97
87.99,284.0,15524.0,3240.0,-180.03,-181.56,78.21,72.79
88.06,536.0,14172.0,6740.0,-185.99,-187.04,64.56,60.83
88.13,472.0,12744.0,9284.0,-185.8,-186.52,53.93,49.04
88.19,436.0,9396.0,12088.0,-172.5,-172.79,37.86,37.6
88.26,444.0,7168.0,13556.0,-168.94,-169.21,27.87,26.52
88.33,196.0,2836.0,14764.0,-177.97,-178.13,10.87,14.27
88.39,392.0,1496.0,14952.0,-177.34,-177.79,5.71,2.81
88.46,368.0,-2828.0,14880.0,-182.48,-182.68,-10.76,-9.13
88.53,520.0,-6792.0,13772.0,-160.95,-161.29,-26.25,-20.84
88.6,520.0,-9328.0,11724.0,-168.46,-169.26,-38.51,-33.26
88.66,332.0,-12332.0,9736.0,-171.83,-173.09,-51.71,-46.01
88.73,492.0,-14672.0,6548.0,-184.34,-186.1,-65.95,-59.73
88.8,488.0,-15684.0,3736.0,-179.36,-181.66,-76.6,-72.84
88.87,764.0,-16540.0,-484.0,-174.27,-176.9,-91.68,-85.87
88.94,576.0,-16180.0,-3668.0,-174.71,-177.85,-102.77,-98.74
89.02,768.0,-15724.0,-7148.0,-173.71,-177.21,-114.45,-111.79
89.09,532.0,-14056.0,-10480.0,-180.66,-184.39,-126.71,-125.38
89.16,588.0,-11488.0,-13312.0,-181.39,-185.24,-139.21,-139.09
89.24,716.0,-7776.0,-16380.0,-186.66,-190.53,-154.61,-153.34
89.31,432.0,-4272.0,-17284.0,-168.72,-172.69,-166.12,-165.94
89.38,232.0,-2268.0,-17504.0,-183.33,-187.32,-172.62,-178.79
89.45,500.0,1744.0,-17432.0,-171.9,-175.33,174.29,169.1
89.52,444.0,5636.0,-16644.0,-175.28,-178.25,161.29,157.19
89.59,316.0,10928.0,-14312.0,-176.68,-179.27,142.64,144.47
89.66,368.0,13052.0,-11768.0,-170.78,-173.54,132.04,132.17
89.74,332.0,14512.0,-8840.0,-186.31,-189.08,121.35,119.08
89.81,316.0,14600.0,-8452.0,-180.98,-183.55,120.07,107.84
89.88,260.0,15868.0,-4556.0,-191.18,-192.65,106.02,95.73
89.94,468.0,16232.0,332.0,-174.24,-174.8,88.83,84.31
90.01,340.0,15664.0,3960.0,-174.7,-174.86,75.81,73.21
90.08,328.0,14460.0,6572.0,-181.31,-181.24,65.56,61.66
90.14,12.0,11240.0,10264.0,-183.49,-183.07,47.6,49.28
90.21,504.0,9684.0,11768.0,-174.47,-174.2,39.45,37.9
90.27,276.0,6812.0,13548.0,-166.51,-166.11,26.69,26.85
90.34,424.0,3428.0,14724.0,-175.53,-175.14,13.11,14.98
90.41,432.0,8.0,14568.0,-175.01,-174.78,0.03,3.0
90.47,292.0,-2424.0,14708.0,-188.88,-188.91,-9.36,-8.61
90.54,436.0,-6940.0,13472.0,-165.14,-165.23,-27.25,-20.56
90.61,744.0,-9296.0,12156.0,-167.29,-167.96,-37.41,-32.81
90.68,656.0,-11960.0,9832.0,-175.07,-176.14,-50.58,-45.66
90.75,428.0,-14432.0,6692.0,-184.08,-185.57,-65.12,-59.29
90.81,584.0,-15732.0,3484.0,-180.4,-182.4,-77.51,-72.59
90.88,424.0,-16568.0,76.0,-164.08,-166.51,-89.74,-84.79
90.95,412.0,-15808.0,-3412.0,-172.56,-175.43,-102.18,-97.23
91.02,660.0,-15448.0,-7000.0,-174.37,-177.67,-114.38,-110.46
91.1,472.0,-14576.0,-10592.0,-181.79,-185.43,-126.0,-124.19
91.17,784.0,-11024.0,-13388.0,-178.91,-182.71,-140.53,-138.01
91.24,532.0,-6876.0,-16340.0,-186.43,-190.46,-157.18,-152.66
91.32,624.0,-4804.0,-17108.0,-169.34,-173.77,-164.32,-165.21
91.39,584.0,-716.0,-17712.0,-174.18,-178.53,-177.69,-178.16
91.46,336.0,2712.0,-17784.0,-173.23,-177.54,171.33,169.36
91.53,504.0,5616.0,-16656.0,-175.57,-179.71,161.37,157.35
91.6,560.0,10820.0,-14180.0,-178.54,-182.32,142.65,144.42
91.67,552.0,11924.0,-12268.0,-171.66,-175.6,135.81,132.42
91.74,644.0,13872.0,-9568.0,-187.4,-191.03,124.6,119.54
91.81,316.0,15660.0,-6792.0,-183.96,-187.14,113.45,107.29
91.88,680.0,16280.0,-3556.0,-187.23,-189.85,102.32,94.99
91.95,392.0,16232.0,576.0,-181.03,-183.0,87.97,83.05
92.02,176.0,15496.0,3584.0,-177.4,-178.93,76.98,71.99
92.08,108.0,14244.0,6804.0,-182.53,-183.63,64.47,60.31
92.15,776.0,11244.0,9876.0,-183.9,-184.63,48.71,48.11
92.22,48.0,9312.0,11880.0,-172.97,-173.65,38.09,36.74
92.28,352.0,6912.0,13584.0,-168.76,-169.32,26.97,25.82
92.35,320.0,2976.0,14800.0,-177.58,-178.04,11.37,13.7
92.41,276.0,1576.0,14800.0,-177.36,-178.02,6.08,2.33
92.48,344.0,-2564.0,14956.0,-183.54,-183.88,-9.73,-9.51
92.55,460.0,-6920.0,13424.0,-162.61,-162.97,-27.27,-21.23
92.62,484.0,-8748.0,12304.0,-167.35,-168.23,-35.41,-33.21
92.69,632.0,-12344.0,9756.0,-170.33,-171.4,-51.68,-45.85
92.76,488.0,-14592.0,6464.0,-185.4,-186.98,-66.11,-59.66
92.82,624.0,-15728.0,3516.0,-172.83,-174.97,-77.4,-72.45
92.89,420.0,-16656.0,384.0,-164.62,-167.19,-88.68,-84.59
92.96,352.0,-16772.0,-3100.0,-174.21,-177.14,-100.47,-97.14
93.03,568.0,-15632.0,-7312.0,-174.9,-178.12,-115.07,-110.49
93.11,532.0,-14608.0,-10172.0,-183.07,-186.7,-124.85,-124.17
93.18,588.0,-10848.0,-13744.0,-175.02,-178.7,-141.72,-137.86
93.26,520.0,-6560.0,-16300.0,-186.47,-190.5,-158.08,-152.64
93.33,656.0,-5360.0,-17072.0,-168.97,-173.49,-162.57,-164.97
93.4,360.0,-1028.0,-17716.0,-166.79,-171.1,-176.68,-177.35
93.47,516.0,2580.0,-17504.0,-174.26,-178.5,171.62,169.87
93.54,540.0,5528.0,-17060.0,-175.05,-179.13,162.05,157.92
93.61,260.0,9548.0,-14788.0,-180.87,-184.59,147.15,145.29
93.68,76.0,12028.0,-13020.0,-174.73,-178.27,137.27,133.36
93.75,464.0,13700.0,-10164.0,-189.09,-192.29,126.57,120.71
93.82,280.0,15992.0,-6512.0,-182.19,-184.87,112.16,108.14
93.89,212.0,16868.0,-3296.0,-186.33,-188.64,101.06,95.67
93.96,404.0,16352.0,-60.0,-178.35,-180.19,90.21,84.09
94.03,372.0,14856.0,3744.0,-180.34,-181.63,75.85,72.63
94.09,412.0,14696.0,5944.0,-188.03,-189.04,67.98,60.94
94.16,304.0,13012.0,8716.0,-182.38,-182.77,56.18,49.62
94.23,460.0,9624.0,11936.0,-171.38,-171.2,38.88,38.31
94.29,352.0,7072.0,13636.0,-171.3,-171.07,27.41,27.0
94.36,204.0,4048.0,14300.0,-173.92,-173.66,15.81,15.5
94.43,364.0,504.0,15192.0,-170.93,-170.64,1.9,3.91
94.49,592.0,-2972.0,14996.0,-182.82,-182.7,-11.21,-8.02
94.56,596.0,-7240.0,13228.0,-167.94,-168.09,-28.69,-20.53
94.63,456.0,-8808.0,12588.0,-167.85,-168.71,-34.98,-32.56
94.7,456.0,-12500.0,9444.0,-167.52,-168.59,-52.93,-45.24
94.77,552.0,-14884.0,6524.0,-185.08,-186.82,-66.33,-59.13
94.84,528.0,-15576.0,3880.0,-176.85,-179.22,-76.01,-72.09
94.91,524.0,-16128.0,-444.0,-168.38,-171.09,-91.58,-84.83
94.98,384.0,-15984.0,-3292.0,-173.21,-176.51,-101.64,-97.61
95.05,628.0,-15568.0,-7084.0,-174.52,-178.18,-114.47,-110.84
95.12,468.0,-14632.0,-10412.0,-181.86,-185.84,-125.44,-124.5
95.19,952.0,-10756.0,-13568.0,-178.12,-182.19,-141.59,-138.37
95.27,428.0,-6756.0,-16224.0,-186.65,-191.0,-157.39,-153.04
95.34,536.0,-4536.0,-17264.0,-169.47,-174.22,-165.28,-165.68
95.41,484.0,-1188.0,-17812.0,-177.65,-182.36,-176.18,-178.65
95.49,188.0,2140.0,-17980.0,-172.18,-176.66,173.21,169.02
95.56,356.0,5532.0,-16672.0,-174.86,-178.97,161.64,157.12
95.63,316.0,10708.0,-14120.0,-178.34,-182.04,142.82,144.26
95.7,404.0,12348.0,-12108.0,-171.34,-175.16,134.44,132.15
95.77,248.0,14188.0,-9248.0,-186.91,-190.53,123.1,119.17
95.84,500.0,15520.0,-7356.0,-184.14,-187.41,115.36,107.15
95.91,572.0,16400.0,-3424.0,-185.89,-188.42,101.79,94.9
95.98,276.0,16264.0,724.0,-179.05,-180.97,87.45,83.04
96.04,236.0,15516.0,3500.0,-179.4,-180.93,77.29,71.89
96.11,392.0,13644.0,7140.0,-185.52,-186.57,62.38,59.82
96.17,668.0,12496.0,9188.0,-184.13,-184.96,53.67,48.2
96.24,276.0,9496.0,12020.0,-171.13,-171.48,38.31,36.98
96.31,212.0,7040.0,13600.0,-169.04,-169.27,27.37,25.91
96.37,340.0,2812.0,14744.0,-175.13,-175.24,10.8,13.89
96.44,400.0,40.0,14844.0,-170.69,-171.07,0.15,2.26
96.5,392.0,-2780.0,14924.0,-183.16,-183.72,-10.55,-9.29
96.57,480.0,-6868.0,13356.0,-164.22,-164.89,-27.21,-21.31
96.64,272.0,-8708.0,12492.0,-167.27,-168.44,-34.88,-33.23
96.71,472.0,-12236.0,9552.0,-171.01,-172.33,-52.02,-45.96
96.78,692.0,-14872.0,6300.0,-185.5,-187.35,-67.04,-59.88
96.85,500.0,-15744.0,3516.0,-171.66,-174.13,-77.41,-72.59
96.92,596.0,-16472.0,208.0,-166.4,-169.3,-89.28,-84.92
96.99,620.0,-16168.0,-3288.0,-173.05,-176.33,-101.5,-97.49
97.06,380.0,-15676.0,-7172.0,-175.33,-178.95,-114.58,-110.81
97.13,600.0,-14704.0,-10344.0,-182.76,-186.72,-125.13,-124.48
97.21,1040.0,-10800.0,-13528.0,-176.21,-180.23,-141.4,-138.21
97.28,520.0,-6740.0,-16428.0,-186.68,-190.98,-157.69,-153.12
97.35,356.0,-4244.0,-17212.0,-168.31,-173.02,-166.15,-165.77
97.43,544.0,-644.0,-17708.0,-173.19,-177.94,-177.92,-178.64
97.5,380.0,2568.0,-17660.0,-172.86,-177.55,171.73,168.97
97.57,448.0,5600.0,-16636.0,-174.96,-179.4,161.4,157.02
97.64,308.0,10652.0,-14096.0,-179.63,-183.67,142.92,144.08
97.71,476.0,11508.0,-12740.0,-173.53,-177.67,137.91,132.23
97.78,576.0,14208.0,-10020.0,-187.39,-191.02,125.19,119.44
97.85,496.0,15512.0,-7568.0,-183.37,-186.49,116.01,107.35
97.92,572.0,16328.0,-3608.0,-188.16,-190.5,102.46,95.02
97.99,316.0,16508.0,440.0,-180.45,-182.13,88.47,83.2
98.05,260.0,15600.0,3384.0,-178.04,-179.25,77.76,72.18
98.12,104.0,13700.0,7600.0,-182.08,-182.79,60.98,60.14
98.19,704.0,11388.0,9868.0,-184.31,-184.95,49.09,47.99
98.25,356.0,9212.0,12016.0,-172.98,-173.53,37.48,36.57
98.32,252.0,6920.0,13644.0,-165.78,-166.25,26.89,25.68
98.39,256.0,3552.0,14488.0,-177.33,-177.69,13.78,13.86
98.45,416.0,1712.0,14896.0,-172.59,-172.96,6.56,2.82
98.52,324.0,-4420.0,14592.0,-167.82,-167.86,-16.85,-8.93
98.59,780.0,-5764.0,13620.0,-182.92,-183.65,-22.94,-21.67
98.66,484.0,-8932.0,12188.0,-168.89,-169.73,-36.24,-33.77
98.73,484.0,-12936.0,9036.0,-168.79,-169.84,-55.07,-46.63
98.8,556.0,-14548.0,7036.0,-181.8,-183.59,-64.19,-59.93
98.86,540.0,-15564.0,3536.0,-177.38,-179.55,-77.2,-72.95
98.93,352.0,-16696.0,1768.0,-186.85,-189.38,-83.96,-85.89
99.0,544.0,-16212.0,-3112.0,-170.89,-173.25,-100.87,-98.27
99.08,780.0,-15440.0,-6872.0,-172.78,-175.37,-113.99,-111.2
99.15,408.0,-14000.0,-10372.0,-176.63,-179.47,-126.53,-124.52
99.22,404.0,-11868.0,-13056.0,-173.08,-176.1,-137.73,-137.56
99.3,508.0,-7388.0,-16116.0,-186.41,-189.45,-155.37,-152.0
99.37,432.0,-4488.0,-18060.0,-168.47,-171.8,-166.04,-164.68
99.44,696.0,-820.0,-17944.0,-178.05,-181.51,-177.38,-177.85
99.51,240.0,2476.0,-17536.0,-172.93,-176.35,171.96,169.78
99.58,392.0,5524.0,-17096.0,-175.05,-178.28,162.09,157.89
99.65,292.0,10972.0,-14448.0,-178.79,-181.64,142.79,144.95
99.72,524.0,11760.0,-12688.0,-172.28,-175.32,137.17,133.07
99.8,624.0,14032.0,-9716.0,-187.69,-190.36,124.7,120.17
99.87,472.0,15808.0,-6892.0,-183.99,-186.26,113.56,107.91
99.93,360.0,16312.0,-3408.0,-186.38,-188.14,101.8,95.59
100.0,312.0,16420.0,636.0,-180.24,-181.45,87.78,83.67
100.07,424.0,15184.0,3476.0,-178.66,-179.5,77.11,72.34
100.14,528.0,13712.0,7336.0,-182.11,-182.54,61.85,60.22
100.21,308.0,11084.0,10340.0,-184.45,-184.73,46.99,47.66
100.27,328.0,9732.0,11936.0,-174.13,-174.47,39.19,36.07
100.34,248.0,6480.0,13676.0,-165.15,-165.21,25.35,24.97
100.41,416.0,3604.0,14852.0,-174.27,-174.3,13.64,13.24
100.48,492.0,-1180.0,14972.0,-173.42,-173.41,-4.51,0.87
100.54,404.0,-4100.0,14356.0,-188.27,-188.74,-15.94,-12.31
100.61,632.0,-7628.0,12644.0,-175.38,-176.16,-31.1,-25.46
100.69,568.0,-10220.0,11124.0,-167.25,-168.53,-42.57,-37.94
100.76,400.0,-13068.0,8868.0,-168.97,-170.65,-55.84,-50.82
100.83,612.0,-14832.0,6144.0,-173.56,-175.68,-67.5,-63.71
100.9,492.0,-15960.0,2704.0,-180.3,-182.76,-80.38,-77.05
100.97,652.0,-16892.0,-1316.0,-178.89,-181.64,-94.45,-90.4
101.04,624.0,-16148.0,-4376.0,-189.73,-192.84,-105.16,-104.34
101.12,608.0,-14852.0,-8196.0,-163.74,-166.93,-118.89,-116.93
101.19,560.0,-12888.0,-11372.0,-169.31,-172.67,-131.42,-129.89
101.26,456.0,-10772.0,-14184.0,-176.62,-180.12,-142.79,-143.33
101.34,440.0,-6736.0,-16568.0,-173.82,-177.27,-157.87,-156.77
101.41,420.0,-3588.0,-17504.0,-179.48,-183.04,-168.42,-170.09
101.49,572.0,-564.0,-17776.0,-174.47,-177.87,-178.18,-182.66
101.56,420.0,4876.0,-17184.0,-189.27,-192.27,164.16,163.43
101.63,352.0,7240.0,-16112.0,-164.63,-167.56,155.8,152.05
101.7,504.0,8520.0,-15192.0,-185.24,-187.82,150.72,140.12
101.77,408.0,13052.0,-11440.0,-176.04,-177.67,131.23,127.97
101.84,364.0,15400.0,-7424.0,-171.89,-173.22,115.74,115.55
101.92,452.0,16256.0,-4120.0,-173.67,-174.99,104.22,103.28
101.99,516.0,16220.0,-1148.0,-170.37,-171.6,94.05,91.47
102.05,524.0,16052.0,1492.0,-193.53,-194.54,84.69,78.87
102.12,268.0,14656.0,5448.0,-162.83,-163.31,69.61,68.04
102.19,220.0,12788.0,9084.0,-173.21,-173.55,54.61,56.13
102.26,460.0,10712.0,10640.0,-178.24,-178.72,45.19,44.18
102.33,376.0,8580.0,12824.0,-181.54,-181.93,33.78,31.93
102.39,572.0,4080.0,14388.0,-180.34,-180.57,15.83,19.31
102.46,320.0,1384.0,15024.0,-180.65,-181.18,5.26,6.87
102.53,256.0,-1432.0,14660.0,-171.04,-171.71,-5.58,-4.49
102.59,460.0,-5280.0,14284.0,-168.18,-168.95,-20.29,-16.52
102.67,612.0,-10420.0,11872.0,-176.66,-177.75,-41.27,-30.43
102.74,400.0,-10468.0,11048.0,-173.89,-175.94,-43.46,-43.1
102.81,460.0,-13608.0,7536.0,-189.38,-191.46,-61.02,-57.31
102.88,472.0,-15424.0,4388.0,-164.05,-166.46,-74.12,-69.64
102.95,672.0,-16512.0,436.0,-169.82,-172.62,-88.49,-82.58
103.02,616.0,-16332.0,-2688.0,-167.67,-171.0,-99.35,-95.02
103.09,548.0,-15484.0,-6548.0,-178.02,-181.72,-112.92,-108.61
103.17,548.0,-13812.0,-10308.0,-185.03,-189.12,-126.73,-123.05
103.24,572.0,-12340.0,-12768.0,-169.79,-174.22,-135.98,-136.1
103.32,464.0,-8500.0,-14864.0,-189.03,-193.44,-150.24,-150.57
103.39,708.0,-5588.0,-16644.0,-164.99,-169.37,-161.44,-162.9
103.46,644.0,-3272.0,-17364.0,-187.08,-191.33,-169.33,-176.16
103.54,500.0,1916.0,-17680.0,-172.22,-175.85,173.81,171.18
103.61,348.0,5248.0,-16848.0,-173.79,-177.18,162.7,159.1
103.68,364.0,8472.0,-15336.0,-179.86,-182.92,151.08,146.72
103.75,400.0,11648.0,-13312.0,-174.86,-177.53,138.81,134.68
103.82,372.0,13756.0,-10224.0,-188.07,-190.36,126.62,121.65
103.89,308.0,15672.0,-6808.0,-182.74,-184.58,113.48,108.96
103.97,380.0,16416.0,-3824.0,-190.44,-191.88,103.11,96.26
104.03,520.0,16412.0,296.0,-173.01,-173.83,88.97,84.7
104.1,352.0,15560.0,3696.0,-173.57,-174.01,76.64,73.53
104.17,404.0,14536.0,6496.0,-181.69,-181.85,65.92,61.77
104.24,44.0,10972.0,10456.0,-183.16,-182.95,46.38,49.08
104.3,392.0,9472.0,11872.0,-175.66,-175.69,38.58,37.37
104.37,436.0,6252.0,13560.0,-166.81,-166.73,24.75,25.96
104.44,296.0,3404.0,14568.0,-174.02,-174.04,13.15,14.09
104.51,384.0,-1152.0,14528.0,-172.88,-172.99,-4.53,1.65
104.57,444.0,-4696.0,14176.0,-188.32,-188.97,-18.33,-11.89
104.64,480.0,-7352.0,13100.0,-175.14,-176.35,-29.3,-24.9
104.72,456.0,-10160.0,11632.0,-174.7,-176.3,-41.14,-37.78
104.79,528.0,-13108.0,8856.0,-175.79,-177.68,-55.96,-51.13
104.86,580.0,-15172.0,5992.0,-174.92,-177.24,-68.45,-64.19
104.93,544.0,-16076.0,2708.0,-179.01,-181.7,-80.44,-77.42
105.0,556.0,-16568.0,-1232.0,-178.89,-181.86,-94.25,-90.72
105.07,684.0,-15848.0,-4160.0,-190.11,-193.39,-104.71,-104.61
105.15,508.0,-15120.0,-7980.0,-163.31,-166.6,-117.82,-117.02
105.22,440.0,-12768.0,-11528.0,-169.19,-172.55,-132.08,-130.04
105.29,396.0,-10636.0,-14012.0,-176.54,-180.09,-142.8,-143.46
105.37,424.0,-6756.0,-16648.0,-173.67,-177.16,-157.91,-156.88
105.44,364.0,-3984.0,-17600.0,-179.07,-182.65,-167.25,-170.03
105.52,440.0,-596.0,-17900.0,-174.21,-177.53,-178.09,-182.57
105.59,376.0,5068.0,-17056.0,-189.68,-192.6,163.45,163.41
105.66,356.0,7240.0,-16028.0,-164.97,-167.88,155.69,152.0
105.73,432.0,10056.0,-14408.0,-183.46,-186.03,145.09,139.55
105.8,348.0,12988.0,-11396.0,-175.05,-177.13,131.26,127.33
105.88,344.0,15348.0,-7684.0,-171.65,-173.37,116.59,115.07
105.95,536.0,16404.0,-4244.0,-173.24,-174.82,104.51,102.91
106.02,252.0,16356.0,-1108.0,-170.49,-171.93,93.88,91.09
106.09,592.0,16044.0,1300.0,-192.92,-194.1,85.37,78.64
106.15,244.0,14732.0,5596.0,-162.27,-162.85,69.2,67.82
106.22,332.0,12956.0,8984.0,-171.69,-172.15,55.26,56.09
106.29,424.0,10660.0,10728.0,-179.58,-180.12,44.82,44.03
106.36,204.0,8744.0,12828.0,-181.6,-182.06,34.28,31.85
106.42,284.0,3936.0,14360.0,-180.64,-180.89,15.33,19.16
106.49,276.0,1472.0,15008.0,-180.15,-180.74,5.6,6.8
106.56,532.0,-1812.0,14820.0,-170.62,-171.31,-6.97,-4.68
106.63,412.0,-5368.0,14392.0,-167.84,-168.73,-20.45,-16.7
106.7,408.0,-10368.0,12004.0,-175.96,-177.18,-40.82,-30.5
106.77,444.0,-10836.0,10828.0,-172.98,-175.11,-45.02,-43.29
106.84,568.0,-13460.0,7680.0,-189.34,-191.62,-60.29,-57.4
106.91,448.0,-15604.0,4344.0,-163.86,-166.4,-74.44,-69.75
106.98,588.0,-16376.0,412.0,-168.73,-171.68,-88.56,-82.63
107.05,580.0,-16316.0,-2556.0,-166.79,-170.27,-98.9,-94.97
107.12,520.0,-15644.0,-6508.0,-177.61,-181.44,-112.59,-108.51
107.2,596.0,-13876.0,-10272.0,-184.06,-188.25,-126.51,-122.88
107.27,460.0,-12496.0,-12488.0,-172.03,-176.54,-134.98,-136.0
107.35,496.0,-8464.0,-15068.0,-188.64,-193.06,-150.68,-150.5
107.42,592.0,-5584.0,-16716.0,-164.73,-169.16,-161.53,-162.84
107.5,520.0,-2356.0,-17404.0,-182.24,-186.56,-172.29,-176.13
107.57,412.0,1576.0,-17932.0,-173.65,-177.62,174.98,171.22
107.64,396.0,5252.0,-17000.0,-176.68,-180.31,162.83,158.96
107.71,168.0,10444.0,-14628.0,-177.66,-180.93,144.47,145.96
107.78,476.0,12520.0,-11840.0,-170.46,-173.87,133.4,133.46
107.85,280.0,14264.0,-9160.0,-186.58,-189.99,122.71,120.13
107.93,420.0,14236.0,-8120.0,-182.11,-185.3,119.7,108.47
108.0,368.0,15956.0,-3404.0,-186.1,-188.27,102.04,95.93
108.07,384.0,16192.0,164.0,-177.11,-178.73,89.42,84.15
108.13,392.0,15588.0,3836.0,-177.47,-178.61,76.17,72.72
108.2,588.0,13476.0,7788.0,-183.45,-184.29,59.98,60.24
108.27,404.0,11032.0,10152.0,-179.66,-180.52,47.38,47.97
108.34,664.0,8812.0,12076.0,-176.22,-177.14,36.12,35.85
108.4,432.0,6112.0,13756.0,-165.76,-166.66,23.96,24.53
108.47,452.0,3028.0,14956.0,-168.64,-169.58,11.45,12.9
108.54,200.0,-748.0,15040.0,-178.62,-179.69,-2.85,0.37
108.61,348.0,-4652.0,14660.0,-185.76,-187.11,-17.61,-12.66
108.68,284.0,-9284.0,12256.0,-173.9,-175.68,-37.14,-26.41
108.75,444.0,-10040.0,11580.0,-181.53,-184.25,-40.93,-39.6
108.82,564.0,-13284.0,8404.0,-174.06,-176.9,-57.68,-52.89
108.89,780.0,-15080.0,5808.0,-172.42,-175.68,-68.94,-65.71
108.96,756.0,-15816.0,2412.0,-177.69,-181.24,-81.33,-78.84
109.03,752.0,-16260.0,-704.0,-178.66,-182.42,-92.48,-91.82
109.1,736.0,-16548.0,-3788.0,-189.66,-193.48,-102.89,-105.2
109.18,456.0,-15120.0,-8280.0,-163.05,-166.67,-118.71,-117.65
109.25,352.0,-12752.0,-11592.0,-171.18,-174.9,-132.27,-130.77
109.32,432.0,-10820.0,-14140.0,-173.9,-177.75,-142.58,-143.93
109.4,472.0,-7100.0,-16396.0,-176.2,-179.92,-156.59,-157.33
109.47,644.0,-3264.0,-17688.0,-177.96,-181.62,-169.54,-170.62
109.55,464.0,920.0,-17692.0,-173.18,-176.74,177.02,176.39
109.62,444.0,4996.0,-17160.0,-188.73,-192.23,163.77,163.08
109.69,388.0,7208.0,-16048.0,-164.15,-167.58,155.81,151.74
109.76,564.0,8300.0,-15548.0,-185.92,-188.99,151.91,139.91
109.83,440.0,12972.0,-11608.0,-175.04,-177.03,131.82,127.89
109.9,416.0,15420.0,-7892.0,-171.73,-173.36,117.1,115.62
109.97,268.0,16444.0,-4124.0,-174.6,-176.1,104.08,103.26
110.04,396.0,16548.0,-924.0,-171.37,-172.8,93.2,91.28
110.11,520.0,15908.0,540.0,-189.99,-191.25,88.06,79.46
110.18,476.0,14776.0,5604.0,-173.99,-174.48,69.23,68.02
110.24,320.0,12972.0,8524.0,-168.21,-168.6,56.69,56.64
110.31,388.0,10684.0,10888.0,-167.0,-167.38,44.46,45.24
110.38,260.0,8436.0,12760.0,-179.87,-180.32,33.47,32.94
110.45,700.0,4608.0,14316.0,-178.78,-179.18,17.84,20.5
110.52,156.0,2904.0,14800.0,-189.82,-190.46,11.1,8.03
110.58,280.0,-1072.0,15012.0,-174.97,-175.33,-4.08,-3.68
110.65,244.0,-5008.0,14460.0,-168.25,-168.65,-19.1,-15.65
110.72,316.0,-10360.0,11704.0,-175.65,-176.35,-41.51,-29.6
110.79,332.0,-10812.0,10832.0,-171.6,-173.34,-44.95,-42.36
110.87,288.0,-13536.0,8316.0,-190.6,-192.57,-58.44,-56.43
110.94,380.0,-15508.0,4292.0,-161.6,-163.75,-74.53,-68.73
111.01,596.0,-15476.0,536.0,-168.05,-170.72,-88.02,-81.61
111.08,532.0,-16800.0,-2944.0,-173.91,-177.14,-99.94,-94.61
111.15,628.0,-15012.0,-6356.0,-177.83,-181.54,-112.95,-108.23
111.22,736.0,-14172.0,-10040.0,-184.4,-188.53,-125.32,-122.52
111.3,420.0,-12888.0,-12356.0,-170.53,-174.91,-133.79,-135.43
111.37,400.0,-8424.0,-15308.0,-189.15,-193.38,-151.18,-150.08
111.45,380.0,-5684.0,-16796.0,-165.42,-169.75,-161.3,-162.48
111.52,492.0,-4004.0,-17748.0,-186.95,-191.18,-167.29,-175.54
111.59,352.0,1876.0,-17604.0,-172.93,-176.4,173.92,171.7
111.67,528.0,5444.0,-16524.0,-174.46,-177.73,161.77,159.42
111.74,592.0,8712.0,-14780.0,-180.19,-183.25,149.48,146.8
111.81,432.0,11676.0,-13220.0,-173.82,-176.63,138.55,134.78
111.88,416.0,14224.0,-9620.0,-187.37,-189.85,124.07,121.47
111.95,300.0,14616.0,-7972.0,-183.17,-185.41,118.61,109.52
112.02,468.0,16292.0,-3968.0,-188.82,-190.25,103.69,96.92
112.09,280.0,16212.0,912.0,-178.49,-179.3,86.78,84.69
112.16,356.0,15456.0,3976.0,-177.79,-178.42,75.57,73.15
112.22,572.0,13308.0,7672.0,-184.04,-184.45,60.04,60.62
112.29,396.0,11028.0,10052.0,-180.11,-180.57,47.65,48.34
112.36,624.0,8724.0,11852.0,-174.31,-174.84,36.36,36.34
112.43,204.0,6096.0,13812.0,-165.42,-165.94,23.81,24.99
112.5,532.0,3352.0,14928.0,-169.59,-170.21,12.66,13.4
112.56,240.0,-820.0,15076.0,-178.44,-179.13,-3.11,0.82
112.63,480.0,-4640.0,14612.0,-185.82,-186.85,-17.62,-12.25
112.7,260.0,-9176.0,12344.0,-174.21,-175.71,-36.63,-25.99
112.77,492.0,-10300.0,11284.0,-178.93,-181.37,-42.39,-39.2
112.84,476.0,-13516.0,8744.0,-172.15,-174.86,-57.1,-52.35
112.91,748.0,-14928.0,5696.0,-172.27,-175.41,-69.11,-65.23
112.98,700.0,-15800.0,2292.0,-178.31,-181.79,-81.75,-78.49
113.06,400.0,-16544.0,-464.0,-178.25,-182.02,-91.61,-91.39
113.13,680.0,-16732.0,-3808.0,-189.31,-193.1,-102.82,-104.78
113.2,404.0,-15068.0,-8340.0,-163.22,-166.83,-118.96,-117.33
113.27,412.0,-12796.0,-11488.0,-169.97,-173.73,-131.92,-130.37
113.35,460.0,-10596.0,-14080.0,-172.92,-176.81,-143.04,-143.56
113.42,468.0,-7432.0,-16228.0,-177.0,-180.85,-155.39,-156.93
113.5,296.0,-2496.0,-17832.0,-177.27,-180.99,-172.03,-170.51
113.57,536.0,1620.0,-17904.0,-172.26,-176.11,174.83,176.28
113.64,452.0,4712.0,-17364.0,-187.44,-191.42,164.82,162.97
113.71,512.0,7436.0,-15976.0,-163.21,-167.03,155.04,151.59
113.78,568.0,10468.0,-14148.0,-171.21,-174.71,143.5,139.71
113.86,268.0,13764.0,-11076.0,-174.31,-177.46,128.82,127.17
113.93,464.0,14996.0,-8112.0,-170.6,-173.61,118.41,115.12
114.0,352.0,16072.0,-3608.0,-173.37,-176.08,102.65,102.66
114.07,400.0,16340.0,-756.0,-170.84,-173.55,92.65,90.63
114.14,464.0,15812.0,2044.0,-191.47,-194.01,82.63,78.11
114.2,652.0,14424.0,5824.0,-162.5,-164.63,68.01,67.11
114.27,240.0,12980.0,8624.0,-164.95,-166.99,56.4,55.89
114.34,240.0,10640.0,11028.0,-179.24,-181.25,43.97,43.69
114.41,108.0,8108.0,12300.0,-172.89,-174.87,33.39,31.88
114.48,556.0,3996.0,14520.0,-183.39,-185.23,15.39,18.93
114.54,128.0,2532.0,15212.0,-185.49,-187.64,9.45,6.61
114.61,340.0,-1880.0,15348.0,-173.32,-175.23,-6.98,-5.08
114.68,636.0,-5396.0,14036.0,-171.09,-173.16,-21.03,-17.4
114.75,580.0,-8212.0,12800.0,-172.49,-174.88,-32.68,-30.08
114.82,764.0,-12012.0,9944.0,-170.79,-173.41,-50.38,-43.22
114.89,432.0,-13976.0,7456.0,-189.59,-192.83,-61.92,-57.42
114.96,544.0,-15568.0,3700.0,-163.95,-167.59,-76.63,-70.08
115.03,416.0,-16420.0,764.0,-166.56,-170.78,-87.34,-82.73
115.1,564.0,-16532.0,-2772.0,-174.56,-179.2,-99.52,-95.68
115.17,524.0,-15632.0,-6912.0,-177.0,-181.97,-113.85,-109.31
115.25,764.0,-14232.0,-10200.0,-184.79,-190.16,-125.63,-123.62
115.32,392.0,-11940.0,-13140.0,-168.37,-173.93,-137.74,-136.79
115.4,456.0,-7580.0,-15452.0,-185.92,-191.56,-153.87,-151.47
115.47,356.0,-7120.0,-16312.0,-178.79,-184.64,-156.42,-164.12
115.54,544.0,-1608.0,-17880.0,-180.6,-185.75,-174.86,-177.51
115.62,268.0,2968.0,-17748.0,-174.63,-179.54,170.51,169.36
115.69,72.0,6196.0,-16564.0,-178.07,-182.88,159.49,156.77
115.76,632.0,5788.0,-15240.0,-175.01,-179.57,159.2,145.96
115.83,360.0,12056.0,-13140.0,-171.73,-175.1,137.46,134.01
115.9,108.0,14536.0,-8968.0,-187.4,-190.46,121.67,120.48
115.97,632.0,14024.0,-8996.0,-182.78,-185.73,122.68,109.08
116.04,492.0,15876.0,-3700.0,-187.09,-188.82,103.12,96.56
116.11,328.0,16180.0,848.0,-178.18,-179.32,87.0,84.39
116.18,372.0,15148.0,4212.0,-176.22,-177.12,74.46,72.83
116.25,264.0,13588.0,7520.0,-180.01,-180.77,61.04,60.67
116.31,276.0,12076.0,9904.0,-182.02,-182.74,50.64,48.59
116.38,132.0,9040.0,12132.0,-182.91,-183.45,36.69,36.25
116.45,332.0,6028.0,13900.0,-166.95,-167.46,23.44,24.78
116.52,456.0,3244.0,14712.0,-171.24,-171.86,12.43,13.09
116.59,356.0,-964.0,14936.0,-168.44,-169.12,-3.69,1.08
116.65,328.0,-4788.0,14352.0,-189.4,-190.5,-18.45,-12.32
116.72,688.0,-7020.0,13400.0,-182.82,-184.45,-27.65,-25.61
116.79,512.0,-10428.0,11108.0,-184.16,-185.97,-43.19,-39.24
116.86,788.0,-13084.0,8704.0,-176.27,-178.42,-56.37,-52.53
116.94,476.0,-14992.0,5668.0,-174.84,-177.33,-69.29,-65.54
117.01,332.0,-16036.0,2300.0,-180.55,-183.38,-81.84,-78.87
117.08,812.0,-16628.0,-2000.0,-177.85,-180.94,-96.86,-92.24
117.15,648.0,-15960.0,-3788.0,-189.47,-192.96,-103.35,-105.78
117.22,400.0,-14844.0,-8460.0,-162.73,-166.02,-119.68,-118.24
117.3,472.0,-12552.0,-11652.0,-171.45,-174.86,-132.87,-131.36
117.37,552.0,-10584.0,-14104.0,-173.86,-177.41,-143.11,-144.49
117.45,444.0,-7208.0,-16096.0,-173.76,-177.18,-155.88,-157.56
117.52,428.0,-4432.0,-17228.0,-180.2,-183.47,-165.57,-170.49
117.59,316.0,-212.0,-17832.0,-180.91,-183.73,-179.32,-183.53
117.67,520.0,3840.0,-17452.0,-187.43,-189.87,167.59,163.21
117.74,292.0,7700.0,-15796.0,-162.85,-164.89,154.01,151.82
117.81,292.0,9472.0,-14264.0,-181.92,-183.76,146.41,139.68
117.88,276.0,12532.0,-11800.0,-172.21,-173.44,133.28,128.08
117.95,208.0,15132.0,-8112.0,-169.05,-169.82,118.19,116.14
118.02,456.0,16316.0,-4208.0,-171.05,-171.63,104.46,104.05
118.09,496.0,16620.0,-816.0,-171.03,-171.57,92.81,92.01
118.16,116.0,15568.0,3056.0,-186.22,-186.69,78.89,79.35
118.23,232.0,14552.0,5776.0,-178.66,-179.17,68.35,67.37
118.3,496.0,12808.0,8872.0,-175.18,-175.6,55.29,55.49
118.36,268.0,10112.0,11504.0,-168.15,-168.59,41.32,43.79
118.43,332.0,7104.0,13028.0,-175.46,-176.11,28.6,31.36
118.5,512.0,4600.0,14208.0,-185.11,-186.01,17.94,18.71
118.57,272.0,-932.0,15296.0,-184.18,-185.15,-3.49,5.13
118.63,500.0,-3520.0,14424.0,-170.97,-172.69,-13.71,-7.14
118.7,216.0,-6312.0,13492.0,-163.44,-165.73,-25.07,-19.38
118.77,552.0,-8532.0,12528.0,-170.11,-172.91,-34.26,-31.89
118.85,356.0,-12664.0,9312.0,-167.55,-170.55,-53.67,-45.02
118.92,596.0,-14372.0,6428.0,-187.36,-191.12,-65.9,-59.35
118.99,424.0,-15564.0,3792.0,-169.58,-173.92,-76.31,-72.17
119.06,448.0,-16376.0,200.0,-165.86,-170.57,-89.3,-84.79
119.13,576.0,-16208.0,-3360.0,-175.24,-180.34,-101.71,-97.83
119.2,748.0,-15524.0,-7144.0,-174.43,-179.88,-114.71,-111.36
119.27,512.0,-14180.0,-10440.0,-181.18,-186.92,-126.36,-125.31
119.35,624.0,-11776.0,-12992.0,-180.82,-186.66,-137.81,-139.14
119.42,620.0,-8020.0,-16196.0,-185.73,-191.45,-153.66,-153.52
119.5,412.0,-4520.0,-17276.0,-172.66,-178.39,-165.34,-166.55
119.57,576.0,-1808.0,-17976.0,-182.4,-188.03,-174.26,-179.74
119.65,644.0,2540.0,-17532.0,-178.96,-184.09,171.76,167.23
119.72,428.0,6260.0,-16556.0,-172.54,-177.25,159.29,155.21
119.79,536.0,7444.0,-15736.0,-173.68,-178.02,154.68,143.99
119.86,480.0,11984.0,-13160.0,-175.95,-179.32,137.68,132.02
119.93,304.0,14552.0,-8984.0,-182.82,-185.68,121.69,119.03
120.0,340.0,15960.0,-4732.0,-180.24,-182.87,106.51,106.14
120.07,328.0,16364.0,-2032.0,-181.31,-183.9,97.08,93.57
120.14,248.0,16132.0,708.0,-173.83,-176.11,87.49,82.17
120.21,272.0,15584.0,4656.0,-171.21,-173.01,73.37,70.98
120.27,420.0,13696.0,7264.0,-174.48,-176.07,62.06,59.42
120.34,252.0,11656.0,9956.0,-176.66,-178.01,49.5,47.64
120.41,220.0,9208.0,12144.0,-191.73,-192.92,37.17,34.89
120.48,368.0,6044.0,13860.0,-173.76,-174.75,23.56,23.14
120.54,300.0,2060.0,14836.0,-166.37,-167.32,7.91,11.41
120.61,468.0,-228.0,15112.0,-164.73,-165.99,-0.86,0.24
120.68,576.0,-4328.0,14632.0,-185.14,-186.49,-16.48,-12.61
120.75,428.0,-6804.0,13720.0,-179.93,-181.62,-26.38,-25.55
120.82,440.0,-10248.0,11592.0,-183.55,-185.32,-41.48,-38.96
120.89,560.0,-13180.0,8684.0,-172.62,-174.61,-56.62,-52.05
120.96,564.0,-15032.0,5852.0,-172.1,-174.49,-68.73,-64.87
121.03,380.0,-15768.0,2352.0,-179.54,-182.27,-81.52,-78.17
121.1,668.0,-16736.0,-2480.0,-173.85,-176.87,-98.43,-91.54
121.17,412.0,-15372.0,-4804.0,-187.02,-190.65,-107.35,-105.46
121.25,620.0,-14524.0,-8580.0,-164.97,-168.78,-120.57,-118.23
121.32,588.0,-12820.0,-11932.0,-168.46,-172.48,-132.95,-131.2
121.4,496.0,-9404.0,-14644.0,-170.94,-175.11,-147.29,-144.68
121.47,456.0,-7044.0,-15856.0,-173.95,-178.36,-156.05,-157.65
121.55,364.0,-4424.0,-17196.0,-173.22,-177.49,-165.57,-170.18
121.62,332.0,-524.0,-18004.0,-170.71,-174.56,-178.33,-182.54
121.69,296.0,3724.0,-17388.0,-182.32,-185.78,167.91,164.38
121.76,420.0,6052.0,-16648.0,-187.74,-190.88,160.02,151.92
121.83,388.0,10948.0,-14016.0,-175.2,-177.6,142.01,139.65
121.91,340.0,13244.0,-11288.0,-171.07,-173.26,130.44,127.57
121.98,152.0,14816.0,-8252.0,-166.69,-168.63,119.12,115.87
122.05,364.0,16352.0,-4664.0,-169.91,-171.55,105.92,103.98
122.12,332.0,16148.0,-768.0,-178.31,-179.77,92.72,91.42
122.19,172.0,15540.0,3828.0,-188.02,-189.36,76.16,78.36
122.25,256.0,14016.0,6096.0,-166.55,-168.09,66.49,66.95
122.32,492.0,12600.0,8940.0,-166.18,-167.76,54.64,55.51
122.39,244.0,10324.0,11412.0,-177.5,-179.17,42.13,43.27
122.46,252.0,6616.0,13540.0,-175.96,-177.72,26.04,30.52
122.53,360.0,4804.0,14540.0,-177.71,-179.87,18.28,18.36
122.59,352.0,452.0,15124.0,-174.24,-176.41,1.71,5.93
122.66,596.0,-2768.0,14796.0,-172.74,-175.27,-10.6,-5.92
122.73,640.0,-6464.0,13288.0,-164.4,-167.34,-25.94,-18.48
122.8,448.0,-8156.0,12676.0,-171.28,-174.87,-32.76,-31.05
122.87,460.0,-13068.0,9036.0,-169.89,-173.63,-55.34,-44.65
122.94,540.0,-14348.0,6972.0,-183.67,-188.35,-64.08,-58.64
123.01,560.0,-15512.0,3948.0,-179.79,-184.95,-75.72,-72.16
123.08,368.0,-16432.0,1804.0,-187.72,-193.19,-83.73,-85.58
123.15,400.0,-16020.0,-3868.0,-170.35,-175.66,-103.57,-98.62
123.22,296.0,-15500.0,-6872.0,-171.81,-177.56,-113.91,-111.82
123.3,476.0,-13544.0,-10444.0,-176.05,-181.98,-127.64,-125.54
123.37,348.0,-11236.0,-13396.0,-172.05,-178.18,-140.01,-139.03
123.45,440.0,-8836.0,-15496.0,-183.88,-190.09,-150.31,-152.95
123.52,452.0,-4164.0,-17384.0,-169.65,-175.62,-166.53,-166.0
123.6,280.0,1244.0,-18116.0,-180.22,-186.24,176.07,179.75
123.67,480.0,3292.0,-17696.0,-174.87,-181.23,169.46,167.21
123.74,340.0,6400.0,-16568.0,-169.43,-175.58,158.88,155.25
123.81,512.0,7560.0,-15832.0,-174.23,-180.05,154.47,143.87
123.88,432.0,11152.0,-13308.0,-168.23,-173.1,140.04,132.58
123.95,300.0,14840.0,-8732.0,-181.91,-186.1,120.47,119.35
124.02,380.0,14204.0,-8932.0,-176.74,-180.83,122.16,108.32
124.09,164.0,15816.0,-3668.0,-181.14,-183.99,103.06,96.18
124.16,480.0,16188.0,900.0,-172.66,-174.89,86.82,84.32
124.23,548.0,15076.0,3680.0,-171.74,-173.75,76.28,73.17
124.3,368.0,13600.0,7300.0,-175.87,-177.6,61.77,61.24
124.36,692.0,11364.0,9900.0,-177.73,-179.42,48.94,49.1
124.43,400.0,9628.0,11772.0,-164.09,-165.79,39.28,38.06
124.5,112.0,7332.0,13484.0,-161.08,-162.67,28.54,27.24
124.57,472.0,3692.0,14676.0,-173.06,-174.54,14.12,15.3
124.64,416.0,-352.0,15128.0,-172.27,-173.86,-1.33,3.02
124.7,304.0,-2984.0,14888.0,-159.85,-161.82,-11.33,-8.12
124.77,484.0,-5720.0,14052.0,-156.03,-158.27,-22.15,-19.46
124.84,448.0,-9600.0,11876.0,-163.92,-166.4,-38.95,-32.08
124.91,360.0,-11212.0,10792.0,-159.36,-162.44,-46.09,-43.84
124.98,692.0,-13208.0,7680.0,-166.55,-169.83,-59.82,-56.45
125.06,464.0,-15332.0,5080.0,-151.24,-154.81,-71.67,-67.87
125.13,524.0,-16208.0,1844.0,-155.66,-159.57,-83.51,-79.63
125.2,512.0,-16528.0,-1472.0,-155.03,-159.29,-95.09,-91.36
125.27,172.0,-17224.0,-2532.0,-174.8,-179.39,-98.36,-103.57
125.34,504.0,-14992.0,-7968.0,-148.21,-152.33,-117.99,-115.04
125.42,652.0,-13184.0,-11152.0,-154.32,-158.71,-130.23,-127.16
125.49,684.0,-11456.0,-13500.0,-158.95,-163.62,-139.68,-139.46
125.57,580.0,-9236.0,-15792.0,-165.53,-170.21,-149.68,-151.94
125.64,560.0,-4808.0,-17132.0,-163.31,-167.79,-164.32,-164.34
125.71,504.0,-3232.0,-17456.0,-171.69,-176.17,-169.51,-176.47
125.79,556.0,812.0,-17596.0,-156.96,-160.81,177.36,172.3
125.86,416.0,4876.0,-17072.0,-160.02,-163.4,164.06,161.27
125.93,496.0,8900.0,-15648.0,-166.22,-169.35,150.37,149.41
126.0,472.0,10748.0,-13568.0,-166.79,-169.83,141.62,137.87
126.07,468.0,13168.0,-10852.0,-155.34,-158.05,129.49,126.85
126.14,404.0,14828.0,-8380.0,-154.06,-156.53,119.47,116.05
126.21,244.0,15136.0,-6920.0,-164.24,-166.4,114.57,105.44
126.28,244.0,16524.0,-1888.0,-162.05,-163.38,96.52,94.18
126.35,320.0,16328.0,516.0,-155.98,-157.11,88.19,83.94
126.42,268.0,15384.0,3760.0,-157.53,-158.28,76.27,73.74
126.49,576.0,13840.0,6800.0,-159.47,-159.99,63.83,63.04
126.55,224.0,12732.0,8944.0,-163.62,-164.07,54.91,52.29
126.62,436.0,10540.0,11056.0,-159.27,-159.49,43.63,41.75
126.69,236.0,8876.0,12596.0,-159.37,-159.43,35.17,31.3
126.76,456.0,4508.0,14360.0,-153.54,-153.26,17.43,20.56
126.83,400.0,2192.0,14688.0,-145.34,-145.33,8.49,10.49
126.89,456.0,96.0,15028.0,-159.42,-159.59,0.37,-0.06
126.96,488.0,-3232.0,14800.0,-162.32,-162.45,-12.32,-10.69
127.03,484.0,-6932.0,13740.0,-152.1,-152.37,-26.77,-22.04
127.1,292.0,-8988.0,12276.0,-144.74,-145.43,-36.21,-32.75
127.17,404.0,-11244.0,10432.0,-145.37,-146.36,-47.15,-43.54
127.24,592.0,-13216.0,7988.0,-158.95,-160.25,-58.85,-55.47
127.31,544.0,-14972.0,5496.0,-155.47,-157.07,-69.84,-66.93
127.38,636.0,-16296.0,1952.0,-153.01,-154.87,-83.17,-78.47
127.45,684.0,-16868.0,-1424.0,-152.38,-154.66,-94.83,-90.01
127.52,472.0,-16604.0,-3668.0,-145.04,-147.75,-102.46,-100.81
127.6,476.0,-15584.0,-6768.0,-144.66,-147.52,-113.47,-111.92
127.67,424.0,-13676.0,-9980.0,-148.03,-151.03,-126.12,-123.42
127.75,500.0,-12328.0,-12480.0,-148.44,-151.67,-135.35,-134.72
127.82,468.0,-9636.0,-14684.0,-142.54,-145.84,-146.73,-145.78
127.9,540.0,-7096.0,-16012.0,-143.85,-147.24,-156.1,-156.6
127.97,388.0,-3748.0,-17232.0,-150.26,-153.6,-167.73,-167.93
128.04,424.0,-1052.0,-17484.0,-149.92,-153.23,-176.56,-178.95
128.12,468.0,2440.0,-17572.0,-143.8,-146.9,172.09,170.41
128.19,352.0,4800.0,-16984.0,-147.15,-150.09,164.22,160.29
128.26,356.0,8788.0,-15528.0,-154.38,-156.97,150.49,149.33
128.33,424.0,11760.0,-12892.0,-155.15,-157.63,137.63,138.11
128.4,412.0,13324.0,-10920.0,-148.6,-151.13,129.34,127.49
128.47,336.0,14580.0,-8764.0,-146.95,-149.31,121.01,117.25
128.54,428.0,15304.0,-6432.0,-148.25,-150.27,112.8,107.32
128.61,468.0,16188.0,-3676.0,-159.24,-160.77,102.79,96.72
128.68,268.0,16648.0,196.0,-145.33,-146.31,89.33,86.84
128.75,548.0,15696.0,3584.0,-157.69,-158.46,77.14,76.4
128.82,368.0,14820.0,5240.0,-145.76,-146.45,70.53,66.96
128.89,380.0,13572.0,7584.0,-139.24,-139.62,60.8,57.9
128.95,308.0,11708.0,10072.0,-141.19,-141.32,49.3,48.46
129.02,496.0,9600.0,11868.0,-140.32,-140.37,38.97,38.84
129.09,336.0,6876.0,13400.0,-134.6,-134.64,27.16,29.47
129.16,356.0,5396.0,13992.0,-154.55,-154.79,21.09,19.24
129.23,320.0,1116.0,15012.0,-148.31,-148.39,4.25,8.67
129.29,480.0,-1740.0,14924.0,-143.4,-143.86,-6.65,-1.38
129.36,396.0,-4400.0,14564.0,-145.5,-146.43,-16.81,-12.0
129.43,420.0,-6768.0,13404.0,-140.47,-141.81,-26.79,-22.54
129.5,480.0,-8728.0,12532.0,-135.2,-136.91,-34.86,-32.51
129.57,400.0,-11508.0,10364.0,-137.5,-139.43,-47.99,-42.99
129.64,596.0,-13424.0,7812.0,-145.9,-148.26,-59.8,-54.32
129.71,400.0,-14712.0,5768.0,-145.66,-148.5,-68.59,-65.23
129.78,516.0,-15796.0,2732.0,-145.32,-148.47,-80.19,-76.23
129.86,612.0,-16684.0,-228.0,-143.76,-147.25,-90.78,-87.1
129.93,580.0,-16516.0,-2628.0,-140.08,-143.9,-99.04,-97.47
130.0,496.0,-15696.0,-5760.0,-141.02,-144.98,-110.15,-108.13
130.07,504.0,-14712.0,-8580.0,-134.93,-139.08,-120.25,-118.62
130.15,444.0,-13004.0,-11104.0,-130.53,-134.82,-130.49,-128.8
130.22,488.0,-11016.0,-13532.0,-133.87,-138.32,-140.85,-139.36
130.3,548.0,-8068.0,-16076.0,-147.94,-152.52,-153.35,-151.09
130.37,500.0,-5736.0,-16632.0,-139.82,-144.61,-160.97,-161.69
130.44,400.0,-2856.0,-17720.0,-134.83,-139.55,-170.84,-171.88
130.52,404.0,112.0,-17944.0,-136.27,-140.89,179.64,177.93
130.59,380.0,3624.0,-17636.0,-141.19,-145.66,168.39,167.84
130.66,388.0,5848.0,-16756.0,-132.19,-136.61,160.76,158.47
130.73,300.0,7712.0,-15692.0,-141.89,-146.11,153.83,148.78
130.8,368.0,10156.0,-13812.0,-142.76,-146.52,143.67,139.01
130.87,384.0,12348.0,-12144.0,-137.68,-141.02,134.52,129.52
130.94,420.0,13756.0,-10048.0,-138.13,-141.02,126.15,120.15
131.02,364.0,15140.0,-7196.0,-131.52,-133.87,115.42,111.09
131.09,176.0,16220.0,-3948.0,-131.28,-133.24,103.68,101.89
131.16,404.0,16432.0,-1244.0,-130.32,-132.12,94.33,92.74
131.23,408.0,15636.0,1056.0,-135.36,-137.02,86.14,83.66
131.29,388.0,15620.0,3812.0,-133.65,-135.08,76.29,74.73
131.36,376.0,14412.0,5928.0,-134.89,-136.18,67.64,65.77
131.43,308.0,13240.0,8320.0,-130.6,-131.73,57.85,56.98
131.5,340.0,11468.0,10352.0,-125.67,-126.73,47.93,48.37
131.56,364.0,9268.0,11936.0,-128.69,-129.79,37.83,39.28
131.63,344.0,7248.0,13180.0,-128.01,-129.23,28.81,30.36
131.7,440.0,5212.0,14164.0,-126.84,-128.2,20.2,21.54
131.77,428.0,3052.0,14748.0,-124.63,-126.1,11.69,12.88
131.83,464.0,264.0,15092.0,-118.94,-120.52,1.0,4.33
131.9,424.0,-1900.0,14812.0,-115.88,-117.75,-7.31,-3.68
131.97,468.0,-4268.0,14404.0,-116.59,-118.77,-16.5,-12.33
132.04,552.0,-7028.0,13476.0,-114.27,-116.82,-27.54,-21.35
132.11,484.0,-7716.0,13444.0,-115.52,-118.61,-29.85,-29.75
132.18,428.0,-11404.0,10776.0,-114.2,-117.29,-46.62,-38.99
132.25,592.0,-12636.0,9288.0,-114.38,-118.15,-53.68,-48.16
132.32,492.0,-13964.0,7128.0,-115.05,-119.3,-62.96,-57.3
132.39,528.0,-14976.0,5140.0,-110.52,-115.28,-71.06,-66.07
132.46,552.0,-15500.0,3592.0,-112.44,-117.64,-76.95,-74.67
132.53,356.0,-16176.0,868.0,-107.64,-113.05,-86.93,-83.14
132.6,620.0,-16436.0,-1528.0,-103.45,-109.19,-95.31,-91.25
132.68,560.0,-16396.0,-3224.0,-100.75,-106.85,-101.12,-99.17
132.75,556.0,-16052.0,-5576.0,-101.73,-108.01,-109.16,-107.27
132.82,676.0,-14688.0,-7788.0,-104.33,-110.78,-117.93,-115.74
132.9,580.0,-14124.0,-9820.0,-101.63,-108.28,-124.81,-123.87
132.97,396.0,-13064.0,-11380.0,-99.11,-105.84,-131.06,-131.62
133.04,512.0,-12008.0,-13044.0,-91.78,-98.46,-137.37,-138.72
133.12,504.0,-10384.0,-14176.0,-90.04,-96.6,-143.78,-145.53
133.19,516.0,-8424.0,-15440.0,-91.76,-98.15,-151.38,-152.53
133.26,644.0,-6644.0,-16584.0,-95.63,-101.92,-158.17,-159.65
133.34,500.0,-4096.0,-17284.0,-93.1,-99.26,-166.67,-166.86
133.41,520.0,-2108.0,-17632.0,-86.31,-92.46,-173.18,-173.46
133.48,524.0,-1760.0,-17700.0,-86.3,-92.41,-174.32,-179.43
133.55,388.0,320.0,-17844.0,-86.89,-92.54,178.97,174.51
133.62,532.0,2380.0,-17972.0,-85.18,-90.43,172.46,168.86
133.69,460.0,3980.0,-17348.0,-83.05,-87.98,167.08,163.31
133.76,476.0,6044.0,-16620.0,-83.54,-88.14,160.02,157.57
133.82,312.0,6652.0,-16388.0,-83.1,-87.48,157.91,152.28
133.89,540.0,7644.0,-15888.0,-83.01,-86.89,154.31,147.21
133.96,396.0,9520.0,-14580.0,-79.12,-82.37,146.86,142.15
134.03,484.0,11312.0,-13276.0,-76.24,-79.08,139.57,137.04
134.1,392.0,12400.0,-12012.0,-78.47,-81.08,134.09,131.7
134.17,432.0,13316.0,-10992.0,-73.73,-76.14,129.54,126.74
134.24,352.0,14080.0,-9340.0,-74.92,-77.08,123.56,121.61
134.31,448.0,14868.0,-7912.0,-72.44,-74.43,118.02,116.68
134.38,348.0,15284.0,-7348.0,-71.4,-73.27,115.68,112.1
134.44,348.0,15572.0,-6388.0,-69.85,-71.41,112.3,107.77
134.51,404.0,16184.0,-4420.0,-70.43,-71.58,105.28,103.12
134.58,260.0,16620.0,-2136.0,-67.86,-68.82,97.32,98.28
134.65,352.0,16368.0,-1956.0,-67.84,-68.89,96.81,94.05
134.72,316.0,16396.0,-92.0,-68.76,-69.57,90.32,89.53
134.78,292.0,15960.0,916.0,-65.81,-66.54,86.72,85.41
134.84,240.0,16016.0,2516.0,-63.02,-63.64,81.07,81.3
134.91,328.0,15660.0,2988.0,-64.69,-65.33,79.2,77.26
134.97,236.0,15196.0,4740.0,-64.27,-64.75,72.68,72.99
135.04,496.0,14536.0,6004.0,-59.8,-60.3,67.56,68.89
135.11,356.0,14456.0,6284.0,-61.75,-62.36,66.51,64.99
135.17,228.0,13812.0,7404.0,-56.94,-57.42,61.81,61.3
135.24,448.0,12672.0,8976.0,-56.94,-57.38,54.69,57.25
135.3,408.0,12296.0,9312.0,-57.86,-58.52,52.86,53.36
135.37,364.0,11308.0,10340.0,-55.53,-56.23,47.56,49.46
135.43,368.0,10740.0,11080.0,-58.54,-59.41,44.11,45.36
135.5,304.0,10456.0,11196.0,-58.34,-59.31,43.04,41.59
135.57,264.0,8372.0,12568.0,-58.34,-59.19,33.67,37.23
135.63,388.0,8104.0,13076.0,-54.19,-55.35,31.79,33.42
135.7,256.0,6852.0,13616.0,-53.75,-55.04,26.71,29.49
135.76,332.0,6112.0,13536.0,-52.1,-53.63,24.3,25.8
135.83,308.0,4220.0,14396.0,-52.91,-54.57,16.34,21.61
135.89,504.0,3440.0,14560.0,-50.84,-52.96,13.29,17.62
135.96,436.0,2832.0,14796.0,-48.34,-50.82,10.84,13.93
136.02,364.0,1900.0,14680.0,-50.31,-53.07,7.37,10.13
136.09,340.0,1248.0,14940.0,-50.11,-53.1,4.78,6.51
136.15,348.0,352.0,15264.0,-49.09,-52.23,1.32,3.01
136.21,332.0,-572.0,14732.0,-46.78,-50.06,-2.22,-0.32
136.28,484.0,-1484.0,14960.0,-48.91,-52.35,-5.67,-3.94
136.35,412.0,-2372.0,14888.0,-45.69,-49.29,-9.05,-7.41
136.41,356.0,-3384.0,14744.0,-48.21,-51.94,-12.93,-11.07
136.48,388.0,-4464.0,14524.0,-46.18,-50.07,-17.08,-14.78
136.55,392.0,-5268.0,14192.0,-47.05,-51.13,-20.36,-18.5
136.62,508.0,-5524.0,14132.0,-49.89,-54.13,-21.35,-22.12
136.69,400.0,-7252.0,13352.0,-50.25,-54.43,-28.51,-26.14
136.75,416.0,-8788.0,12816.0,-48.21,-52.6,-34.44,-30.25
136.82,372.0,-8444.0,12652.0,-49.25,-54.01,-33.72,-33.92
136.89,460.0,-9816.0,11908.0,-50.63,-55.37,-39.5,-37.91
136.96,416.0,-10496.0,11252.0,-50.21,-55.08,-43.01,-41.83
137.03,684.0,-11224.0,10412.0,-47.44,-52.42,-47.15,-45.66
137.1,544.0,-12000.0,9964.0,-50.33,-55.44,-50.3,-49.6
137.17,476.0,-12760.0,9140.0,-49.24,-54.41,-54.39,-53.45
137.24,472.0,-13468.0,8068.0,-52.75,-58.0,-59.08,-57.6
137.3,604.0,-14008.0,7344.0,-52.92,-58.31,-62.33,-61.68
137.37,540.0,-14452.0,6380.0,-50.05,-55.48,-66.18,-65.56
137.44,496.0,-14976.0,5468.0,-51.67,-57.17,-69.94,-69.52
137.51,360.0,-15364.0,4904.0,-46.9,-52.43,-72.3,-73.03
137.58,500.0,-15632.0,3884.0,-44.7,-50.17,-76.05,-76.42
137.65,644.0,-15656.0,2904.0,-49.15,-54.58,-79.49,-80.08
137.72,440.0,-16136.0,2096.0,-48.03,-53.41,-82.6,-83.62
137.78,560.0,-16308.0,1244.0,-51.15,-56.45,-85.64,-87.28
137.85,572.0,-16296.0,-376.0,-52.8,-57.95,-91.32,-91.26
137.92,612.0,-16452.0,-1776.0,-54.03,-59.18,-96.16,-95.41
137.99,520.0,-16656.0,-2032.0,-54.99,-60.21,-96.96,-99.3
138.06,496.0,-16736.0,-2288.0,-54.53,-59.54,-97.78,-102.82
138.13,504.0,-16072.0,-5300.0,-55.43,-60.0,-108.25,-107.19
138.2,432.0,-15672.0,-6012.0,-51.05,-55.72,-110.99,-111.17
138.28,508.0,-15336.0,-7092.0,-56.31,-60.95,-114.82,-115.46
138.35,596.0,-15296.0,-7768.0,-56.31,-60.9,-116.92,-119.5
138.42,380.0,-14376.0,-9436.0,-58.35,-62.71,-123.28,-123.92
138.49,652.0,-13788.0,-10072.0,-55.42,-59.72,-126.15,-127.97
138.56,440.0,-13120.0,-11088.0,-59.32,-63.46,-130.2,-132.33
138.64,536.0,-12328.0,-12296.0,-59.27,-63.22,-134.93,-136.7
138.71,420.0,-12044.0,-12588.0,-62.08,-65.88,-136.27,-140.91
138.78,568.0,-10576.0,-14100.0,-57.36,-60.73,-143.13,-145.08
138.85,416.0,-9576.0,-14888.0,-66.21,-69.41,-147.25,-149.81
138.93,468.0,-8748.0,-15252.0,-61.79,-64.76,-150.16,-153.96
139.0,372.0,-6892.0,-16116.0,-63.21,-65.83,-156.85,-158.48
139.07,520.0,-6468.0,-16652.0,-63.77,-66.25,-158.77,-162.72
139.14,412.0,-3796.0,-17584.0,-67.21,-69.33,-167.82,-167.71
139.21,440.0,-3216.0,-17544.0,-61.69,-63.82,-169.61,-171.99
139.29,532.0,-2588.0,-17296.0,-68.93,-70.85,-171.49,-176.43
139.36,396.0,-1028.0,-17636.0,-63.52,-64.99,-176.66,-180.59
139.43,440.0,1080.0,-18108.0,-68.11,-69.22,176.59,174.68
139.5,456.0,1204.0,-17664.0,-69.54,-70.49,176.1,170.56
139.57,432.0,3228.0,-17600.0,-68.24,-68.7,169.61,166.27
139.63,532.0,5308.0,-17068.0,-67.1,-67.25,162.72,161.77
139.7,380.0,6088.0,-16644.0,-70.81,-70.88,159.91,157.25
139.77,316.0,7452.0,-15964.0,-73.72,-73.55,154.98,152.51
139.84,260.0,9724.0,-14732.0,-70.36,-69.97,146.57,147.59
139.91,332.0,10584.0,-13860.0,-72.33,-72.03,142.63,142.64
139.98,224.0,11504.0,-13040.0,-71.57,-71.28,138.58,137.78
140.05,328.0,12196.0,-12112.0,-74.8,-74.44,134.8,132.84
140.12,392.0,12916.0,-11460.0,-72.11,-71.57,131.58,128.27
140.19,380.0,13368.0,-10828.0,-74.92,-74.09,129.01,123.76
140.26,340.0,14428.0,-8960.0,-77.01,-75.71,121.84,118.86
140.33,352.0,15392.0,-7340.0,-75.92,-74.37,115.5,113.95
140.4,352.0,16268.0,-5412.0,-77.53,-75.83,108.4,108.71
140.46,468.0,16176.0,-5116.0,-82.97,-81.3,107.55,103.62
140.53,316.0,16092.0,-2380.0,-76.47,-74.46,98.41,98.5
140.6,388.0,15976.0,-1824.0,-83.95,-81.94,96.51,93.44
140.67,372.0,16512.0,308.0,-76.85,-74.57,88.93,88.54
140.73,324.0,16272.0,1516.0,-85.39,-83.08,84.68,83.36
140.8,224.0,15812.0,2980.0,-81.79,-79.36,79.33,78.3
140.86,328.0,15104.0,4740.0,-81.89,-79.38,72.58,73.05
140.93,248.0,14584.0,5800.0,-86.59,-84.12,68.31,67.64
140.99,316.0,13744.0,7628.0,-77.35,-74.82,60.97,62.56
141.06,292.0,12964.0,9016.0,-88.33,-85.94,55.18,56.75
141.12,348.0,11444.0,10152.0,-79.05,-76.79,48.42,51.38
141.19,312.0,10072.0,11504.0,-81.21,-79.21,41.2,45.59
141.26,356.0,8644.0,12524.0,-92.04,-90.41,34.61,39.05
141.32,400.0,7580.0,13084.0,-83.22,-81.98,30.09,33.3
141.39,400.0,6272.0,13716.0,-85.09,-84.12,24.57,27.46
141.45,284.0,4476.0,14176.0,-91.92,-91.19,17.52,21.07
141.52,468.0,2344.0,14552.0,-85.68,-85.26,9.15,14.82
141.58,468.0,1088.0,14920.0,-83.69,-83.76,4.17,8.87
141.64,392.0,-96.0,14952.0,-93.31,-93.78,-0.37,2.6
141.71,328.0,-1876.0,14852.0,-80.55,-81.27,-7.2,-3.02
141.77,432.0,-3804.0,14424.0,-86.69,-87.77,-14.77,-9.48
141.84,364.0,-5336.0,14236.0,-89.26,-90.79,-20.55,-16.13
141.91,428.0,-7124.0,13228.0,-88.34,-90.25,-28.3,-22.95
141.98,508.0,-8532.0,12992.0,-93.69,-96.07,-33.29,-29.94
142.05,424.0,-10160.0,11540.0,-92.85,-95.52,-41.36,-37.01
142.12,344.0,-11588.0,10532.0,-85.18,-88.21,-47.73,-43.64
142.19,448.0,-12852.0,8748.0,-87.21,-90.61,-55.76,-50.58
142.25,368.0,-14056.0,7492.0,-92.46,-96.31,-61.94,-57.7
142.32,648.0,-14752.0,5760.0,-92.56,-96.78,-68.67,-64.81
142.39,532.0,-15460.0,4764.0,-89.43,-93.99,-72.87,-71.42
142.46,528.0,-15868.0,2276.0,-87.78,-92.46,-81.84,-78.21
142.53,460.0,-16176.0,956.0,-90.52,-95.52,-86.62,-84.96
142.6,752.0,-16548.0,-1352.0,-88.29,-93.44,-94.67,-91.63
142.67,628.0,-16064.0,-3416.0,-91.19,-96.61,-102.01,-98.75
142.74,584.0,-16044.0,-4936.0,-95.37,-101.08,-107.1,-106.03
142.81,548.0,-15264.0,-6736.0,-93.97,-99.77,-113.81,-113.35
142.88,544.0,-14884.0,-8268.0,-94.7,-100.54,-119.05,-120.4
142.95,464.0,-13632.0,-10368.0,-93.48,-99.2,-127.26,-127.58
143.03,588.0,-12228.0,-12136.0,-94.95,-100.64,-134.78,-134.89
143.1,504.0,-10780.0,-13616.0,-95.76,-101.44,-141.63,-142.31
143.17,576.0,-9048.0,-14800.0,-98.22,-103.84,-148.56,-149.82
143.25,564.0,-7584.0,-16192.0,-95.33,-100.83,-154.9,-156.91
143.32,480.0,-5932.0,-16684.0,-92.99,-98.32,-160.43,-163.65
143.39,440.0,-4472.0,-17148.0,-95.35,-100.38,-165.38,-170.23
143.46,532.0,-1344.0,-17656.0,-98.82,-103.42,-175.65,-177.52
143.54,532.0,452.0,-17936.0,-103.95,-108.37,178.56,175.04
143.61,448.0,2116.0,-17736.0,-98.27,-102.38,173.2,168.51
143.68,292.0,3824.0,-17556.0,-95.11,-98.8,167.71,162.31
143.75,500.0,4768.0,-17184.0,-101.12,-104.32,164.49,156.21
143.82,312.0,7072.0,-16376.0,-102.95,-105.41,156.64,149.64
143.89,380.0,9564.0,-14936.0,-98.56,-100.39,147.37,143.08
143.96,364.0,11352.0,-13632.0,-100.34,-101.79,140.21,136.46
144.03,392.0,12604.0,-11788.0,-99.57,-100.69,133.08,129.66
144.1,380.0,13864.0,-9928.0,-103.87,-104.68,125.61,122.63
144.17,284.0,15148.0,-8164.0,-101.11,-101.66,118.32,115.76
144.24,504.0,15716.0,-6164.0,-100.53,-100.85,111.42,108.94
144.31,324.0,15804.0,-5032.0,-97.69,-97.79,107.66,102.65
144.38,344.0,16344.0,-2640.0,-97.49,-97.14,99.18,96.35
144.45,472.0,16388.0,-668.0,-97.95,-97.35,92.33,90.16
144.51,336.0,16056.0,1612.0,-104.6,-103.81,84.27,83.47
144.58,204.0,15672.0,3208.0,-100.34,-99.47,78.43,76.94
144.65,404.0,14928.0,5408.0,-97.52,-96.53,70.09,70.48
144.71,368.0,14116.0,7324.0,-99.2,-98.24,62.58,63.9
144.78,328.0,12676.0,8696.0,-101.37,-100.52,55.55,57.13
144.85,268.0,11512.0,10044.0,-99.08,-98.37,48.9,50.31
144.91,284.0,9996.0,11728.0,-97.62,-97.03,40.44,43.49
144.98,360.0,8664.0,12440.0,-103.0,-102.68,34.86,36.57
145.04,384.0,6284.0,13728.0,-103.23,-103.06,24.6,29.07
145.11,264.0,4712.0,14060.0,-103.75,-103.96,18.53,21.67
145.18,332.0,3716.0,14532.0,-99.63,-100.11,14.34,14.85
145.25,412.0,940.0,15180.0,-98.68,-99.21,3.54,7.74
145.31,468.0,-1488.0,14900.0,-103.75,-104.64,-5.7,0.5
145.38,572.0,-3656.0,14580.0,-100.81,-102.24,-14.08,-7.22
145.45,600.0,-5496.0,14004.0,-97.55,-99.57,-21.43,-14.94
145.51,368.0,-6408.0,13772.0,-97.27,-99.85,-24.95,-22.13
145.58,496.0,-8972.0,12428.0,-97.44,-100.26,-35.83,-29.74
145.65,540.0,-9532.0,11976.0,-100.28,-103.64,-38.52,-37.12
145.72,408.0,-11808.0,9896.0,-96.73,-100.21,-50.03,-44.84
145.79,448.0,-13184.0,8292.0,-96.31,-100.25,-57.83,-52.48
145.86,456.0,-14380.0,6812.0,-99.75,-104.15,-64.65,-60.27
145.93,476.0,-15264.0,4912.0,-103.29,-108.08,-72.16,-68.28
146.0,588.0,-15688.0,3480.0,-107.98,-113.12,-77.49,-76.41
146.07,612.0,-16164.0,744.0,-102.98,-108.21,-87.36,-84.43
146.14,640.0,-16300.0,-1648.0,-99.49,-104.98,-95.77,-92.18
146.21,516.0,-16296.0,-3436.0,-99.28,-105.09,-101.91,-99.86
146.29,572.0,-16092.0,-5240.0,-100.5,-106.49,-108.04,-107.56
146.36,536.0,-15008.0,-7504.0,-103.72,-109.75,-116.57,-115.78
146.43,520.0,-14436.0,-9876.0,-105.94,-112.04,-124.38,-124.1
146.51,408.0,-13260.0,-11356.0,-104.8,-110.93,-130.58,-132.1
146.58,420.0,-11400.0,-13348.0,-101.91,-107.9,-139.5,-140.11
146.66,460.0,-10228.0,-14600.0,-103.18,-109.11,-144.99,-147.92
146.73,488.0,-7520.0,-16008.0,-102.08,-107.75,-154.84,-155.87
146.81,488.0,-6020.0,-16632.0,-101.53,-107.11,-160.1,-163.36
146.88,388.0,-3336.0,-17248.0,-102.97,-108.25,-169.05,-171.1
146.95,484.0,-792.0,-17788.0,-106.27,-111.36,-177.45,-179.12
147.03,432.0,344.0,-17976.0,-105.53,-110.46,178.9,173.54
147.1,456.0,3068.0,-17936.0,-112.77,-117.22,170.29,165.93
147.17,364.0,4848.0,-17144.0,-109.12,-113.17,164.21,158.64
147.24,492.0,6816.0,-16276.0,-108.96,-112.51,157.28,151.43
147.31,256.0,9292.0,-14944.0,-103.5,-106.52,148.13,144.38
147.38,416.0,10588.0,-13668.0,-104.95,-107.64,142.24,137.38
147.45,184.0,11964.0,-12016.0,-108.8,-111.05,135.12,130.05
147.52,320.0,13908.0,-9788.0,-113.09,-114.88,125.14,122.18
147.59,388.0,14556.0,-8356.0,-107.15,-108.67,119.86,115.1
147.67,256.0,16008.0,-5524.0,-105.77,-106.87,109.04,107.7
147.74,468.0,15824.0,-4008.0,-106.05,-107.03,104.21,100.59
147.81,404.0,16160.0,-1552.0,-105.27,-105.92,95.49,93.37
