Tiempo,AccX,AccY,AccZ,GiroY,KalmanGiroY,Pitch,KalmanPitch
0.65,356.0,-228.0,14844.0,1.53,-0.14,0.88,0.63
4.71,344.0,-144.0,15012.0,1.64,-0.01,0.55,0.62
4.77,272.0,-128.0,14964.0,1.53,-0.13,0.49,0.6
4.82,360.0,-192.0,14924.0,1.66,-0.0,0.74,0.61
4.88,256.0,-92.0,14712.0,1.63,-0.03,0.36,0.59
4.94,296.0,-96.0,15072.0,1.6,-0.08,0.36,0.56
5.0,348.0,-224.0,15084.0,1.54,-0.15,0.85,0.58
5.05,328.0,-72.0,14952.0,1.64,-0.03,0.28,0.55
5.11,276.0,-208.0,14880.0,1.74,0.05,0.8,0.58
5.17,308.0,-152.0,15100.0,1.46,-0.21,0.58,0.57
5.22,236.0,-88.0,15000.0,1.53,-0.14,0.34,0.54
5.28,276.0,-128.0,14948.0,1.56,-0.13,0.49,0.53
5.34,444.0,-192.0,14924.0,1.73,0.03,0.74,0.55
5.4,180.0,-156.0,15052.0,1.46,-0.22,0.59,0.54
5.45,216.0,-296.0,15080.0,1.62,-0.05,1.12,0.6
5.51,300.0,4.0,14912.0,1.62,-0.01,-0.02,0.54
5.57,316.0,-132.0,15048.0,1.69,0.01,0.5,0.53
5.62,416.0,-196.0,14972.0,1.44,-0.23,0.75,0.54
5.68,268.0,-172.0,15128.0,1.56,-0.09,0.65,0.55
5.74,304.0,-192.0,14868.0,1.68,0.03,0.74,0.57
5.8,360.0,-204.0,15044.0,1.57,-0.06,0.78,0.59
5.85,256.0,-192.0,15032.0,1.62,-0.0,0.73,0.6
5.91,276.0,-184.0,15056.0,1.6,-0.02,0.7,0.61
5.97,288.0,-104.0,14872.0,1.53,-0.08,0.4,0.58
6.03,368.0,-80.0,14920.0,1.61,-0.01,0.31,0.56
6.08,344.0,-68.0,15056.0,1.6,-0.04,0.26,0.53
6.14,232.0,-112.0,15080.0,1.53,-0.13,0.43,0.51
6.2,308.0,-208.0,14984.0,1.65,-0.02,0.8,0.54
6.25,300.0,-304.0,15136.0,1.57,-0.07,1.15,0.59
6.31,356.0,-180.0,15056.0,1.61,0.01,0.68,0.6
6.37,376.0,-44.0,15004.0,1.69,0.1,0.17,0.56
6.42,380.0,-48.0,14864.0,1.53,-0.09,0.19,0.52
6.48,344.0,-88.0,15104.0,1.65,-0.0,0.33,0.5
6.54,388.0,-164.0,15104.0,1.6,-0.06,0.62,0.51
6.6,260.0,-128.0,14756.0,1.57,-0.09,0.5,0.51
6.65,284.0,-228.0,14948.0,1.68,0.02,0.87,0.54
6.71,364.0,-108.0,14992.0,1.57,-0.06,0.41,0.53
6.77,320.0,-160.0,15136.0,1.5,-0.14,0.61,0.53
6.83,300.0,-188.0,14972.0,1.61,-0.02,0.72,0.55
6.88,344.0,-64.0,15040.0,1.63,0.01,0.24,0.52
6.94,304.0,-152.0,15144.0,1.61,-0.03,0.58,0.52
7.0,288.0,-140.0,15076.0,1.63,-0.01,0.53,0.52
7.05,332.0,-296.0,14904.0,1.66,0.03,1.14,0.58
7.11,308.0,-248.0,14940.0,1.66,0.06,0.95,0.62
7.17,356.0,-228.0,15056.0,1.47,-0.09,0.87,0.64
7.23,412.0,-48.0,14996.0,1.51,-0.04,0.18,0.59
7.28,340.0,-108.0,14968.0,1.63,0.04,0.41,0.58
7.34,356.0,-120.0,15000.0,1.51,-0.08,0.46,0.56
7.4,220.0,-80.0,15092.0,1.56,-0.04,0.3,0.54
7.45,380.0,-72.0,15104.0,1.67,0.05,0.27,0.51
7.51,316.0,-64.0,14976.0,1.56,-0.08,0.24,0.48
7.57,344.0,-224.0,14928.0,1.63,-0.03,0.86,0.52
7.62,264.0,-148.0,14988.0,1.47,-0.17,0.57,0.51
7.68,344.0,-128.0,14768.0,1.47,-0.16,0.5,0.5
7.74,396.0,-108.0,14960.0,1.49,-0.14,0.41,0.49
7.8,312.0,-124.0,15020.0,1.7,0.07,0.47,0.49
7.85,280.0,-112.0,15056.0,1.53,-0.11,0.43,0.48
7.91,380.0,-268.0,15060.0,1.68,0.04,1.02,0.53
7.97,316.0,-80.0,14996.0,1.47,-0.14,0.31,0.5
8.02,300.0,-156.0,14908.0,1.53,-0.08,0.6,0.51
8.08,344.0,-232.0,14976.0,1.66,0.05,0.89,0.55
8.14,328.0,-172.0,15016.0,1.66,0.08,0.66,0.56
8.2,424.0,-180.0,14720.0,1.56,-0.01,0.7,0.58
8.25,480.0,-196.0,15060.0,1.56,-0.0,0.75,0.59
8.31,308.0,-172.0,14952.0,1.55,-0.0,0.66,0.6
8.37,372.0,-248.0,14884.0,1.5,-0.05,0.95,0.63
8.43,424.0,-100.0,15012.0,1.46,-0.07,0.38,0.6
8.48,356.0,-68.0,15048.0,1.52,-0.02,0.26,0.57
8.54,248.0,-68.0,15056.0,1.66,0.1,0.26,0.54
8.6,268.0,-152.0,14940.0,1.41,-0.18,0.58,0.54
8.65,336.0,-108.0,14936.0,1.69,0.11,0.41,0.53
8.71,400.0,-128.0,15060.0,1.53,-0.06,0.49,0.52
8.77,316.0,-228.0,14828.0,1.5,-0.09,0.88,0.55
8.83,336.0,-148.0,14952.0,1.54,-0.03,0.57,0.55
8.88,476.0,-108.0,14836.0,1.73,0.16,0.42,0.55
8.94,388.0,-4.0,15096.0,1.62,0.04,0.02,0.5
9.0,332.0,-136.0,14940.0,1.51,-0.11,0.52,0.5
9.05,308.0,-52.0,14916.0,1.56,-0.06,0.2,0.46
9.11,292.0,-160.0,14968.0,1.63,-0.0,0.61,0.48
9.17,292.0,-224.0,14968.0,1.52,-0.11,0.86,0.51
9.23,316.0,-140.0,14996.0,1.6,-0.0,0.53,0.51
9.28,420.0,-216.0,14924.0,1.74,0.14,0.83,0.55
9.34,388.0,-96.0,15096.0,1.66,0.08,0.36,0.54
9.4,404.0,-112.0,15044.0,1.72,0.13,0.43,0.53
9.45,328.0,-216.0,14964.0,1.57,-0.02,0.83,0.56
9.51,308.0,-224.0,14944.0,1.56,-0.02,0.86,0.59
9.57,324.0,-244.0,14968.0,1.63,0.07,0.93,0.62
9.62,216.0,-228.0,14884.0,1.65,0.12,0.88,0.66
9.68,408.0,-164.0,14940.0,1.44,-0.08,0.63,0.65
9.74,284.0,-160.0,15052.0,1.65,0.13,0.61,0.65
9.8,308.0,-132.0,15016.0,1.58,0.06,0.5,0.64
9.85,332.0,-80.0,14972.0,1.51,-0.02,0.31,0.61
9.91,292.0,-220.0,14912.0,1.61,0.06,0.85,0.63
9.97,344.0,-172.0,15052.0,1.47,-0.06,0.65,0.63
10.02,332.0,-232.0,15044.0,1.56,0.02,0.88,0.66
10.08,272.0,-196.0,15104.0,1.52,0.0,0.74,0.67
10.14,200.0,0.0,14968.0,1.6,0.09,0.0,0.61
10.19,260.0,-168.0,15160.0,1.62,0.06,0.63,0.61
10.25,352.0,-204.0,15124.0,1.49,-0.07,0.77,0.62
10.31,424.0,-108.0,14852.0,1.63,0.09,0.42,0.61
10.37,264.0,-208.0,14980.0,1.63,0.07,0.8,0.63
10.42,272.0,-152.0,15036.0,1.5,-0.05,0.58,0.62
10.48,244.0,-240.0,15004.0,1.53,-0.02,0.92,0.65
10.54,364.0,-160.0,14956.0,1.56,0.04,0.61,0.65
10.6,360.0,-304.0,15024.0,1.61,0.08,1.16,0.7
10.66,404.0,-140.0,14884.0,1.65,0.15,0.54,0.69
10.72,336.0,-172.0,15072.0,1.49,-0.02,0.65,0.69
10.77,196.0,-4.0,14860.0,1.52,0.01,0.02,0.62
10.83,332.0,-160.0,15060.0,1.61,0.05,0.61,0.62
10.89,204.0,-76.0,14888.0,1.55,-0.01,0.29,0.59
10.95,308.0,-208.0,15044.0,1.47,-0.12,0.79,0.61
11.0,332.0,-76.0,15032.0,1.57,0.0,0.29,0.57
11.06,360.0,-196.0,14892.0,1.66,0.06,0.75,0.6
11.12,328.0,-192.0,14968.0,1.6,0.02,0.73,0.61
11.18,248.0,-160.0,15008.0,1.46,-0.11,0.61,0.6
11.24,320.0,-152.0,15068.0,1.51,-0.06,0.58,0.6
11.29,444.0,-104.0,15124.0,1.62,0.05,0.39,0.58
11.35,348.0,-8.0,14908.0,1.5,-0.08,0.03,0.52
11.41,372.0,-196.0,15120.0,1.56,-0.06,0.74,0.54
11.47,260.0,-116.0,15096.0,1.58,-0.03,0.44,0.53
11.53,332.0,-284.0,15056.0,1.69,0.07,1.08,0.59
11.58,408.0,-172.0,15044.0,1.57,-0.0,0.66,0.59
11.64,428.0,-108.0,14880.0,1.56,-0.01,0.42,0.58
11.7,352.0,-144.0,15148.0,1.69,0.11,0.54,0.58
11.76,260.0,-268.0,15212.0,1.52,-0.07,1.01,0.62
11.82,284.0,-156.0,14892.0,1.59,0.03,0.6,0.62
11.88,404.0,-176.0,14876.0,1.53,-0.02,0.68,0.62
11.94,340.0,-88.0,15012.0,1.52,-0.03,0.34,0.59
11.99,328.0,-196.0,14972.0,1.52,-0.05,0.75,0.61
12.05,408.0,-164.0,14912.0,1.73,0.17,0.63,0.62
12.11,236.0,-144.0,15088.0,1.52,-0.04,0.55,0.61
12.17,304.0,-144.0,14984.0,1.56,-0.0,0.55,0.6
12.23,256.0,-188.0,14992.0,1.62,0.05,0.72,0.62
12.28,296.0,-172.0,15008.0,1.44,-0.12,0.66,0.61
12.34,372.0,-280.0,14888.0,1.76,0.2,1.08,0.67
12.4,420.0,-156.0,15060.0,1.48,-0.04,0.59,0.66
12.46,328.0,-220.0,15116.0,1.63,0.1,0.83,0.68
12.52,300.0,-276.0,15032.0,1.66,0.15,1.05,0.73
12.58,308.0,-16.0,14880.0,1.56,0.06,0.06,0.66
12.63,352.0,-104.0,14900.0,1.59,0.05,0.4,0.64
12.69,216.0,-96.0,15152.0,1.47,-0.09,0.36,0.61
12.75,360.0,-164.0,15136.0,1.54,-0.04,0.62,0.61
12.81,280.0,-116.0,14976.0,1.54,-0.04,0.44,0.59
12.87,412.0,-160.0,14848.0,1.46,-0.13,0.62,0.59
12.92,308.0,-120.0,15100.0,1.64,0.05,0.46,0.58
12.98,248.0,-168.0,15004.0,1.53,-0.07,0.64,0.58
13.04,300.0,-64.0,14848.0,1.56,-0.03,0.25,0.54
13.1,272.0,-140.0,14900.0,1.52,-0.1,0.54,0.54
13.16,96.0,4756.0,12844.0,-154.99,-156.61,-20.32,-9.82
13.22,512.0,-7060.0,14060.0,-172.76,-175.22,26.66,-16.63
13.29,312.0,-7128.0,13844.0,-163.09,-162.02,27.24,-22.15
13.36,344.0,-10988.0,11268.0,-175.83,-170.68,44.28,-25.8
13.43,764.0,-11124.0,9596.0,-168.98,-157.95,49.22,-27.83
13.5,356.0,-14168.0,6744.0,-181.42,-163.86,64.55,-28.16
13.57,996.0,-15548.0,3812.0,-174.73,-149.24,76.22,-26.23
13.64,632.0,-16336.0,320.0,-168.22,-133.93,88.88,-22.14
13.7,636.0,-16320.0,-2460.0,-173.22,-129.33,98.57,-16.99
13.77,648.0,-15772.0,-6184.0,-175.56,-121.65,111.41,-10.68
13.84,628.0,-14992.0,-9564.0,-179.47,-114.94,122.54,-3.45
13.91,656.0,-11500.0,-12548.0,-176.54,-100.98,137.5,5.68
13.98,448.0,-10132.0,-14844.0,-167.6,-80.47,145.68,16.03
14.05,584.0,-6912.0,-16620.0,-166.62,-68.08,157.42,27.36
14.12,448.0,-3876.0,-17292.0,-171.22,-61.22,167.37,39.02
14.19,316.0,1260.0,-17728.0,-170.37,-49.07,-175.93,12.37
14.26,368.0,3736.0,-17456.0,-185.02,-80.28,-167.92,-12.38
14.33,424.0,6596.0,-16448.0,-175.62,-84.56,-158.15,-33.7
14.4,368.0,9828.0,-14268.0,-164.52,-84.4,-145.44,-51.28
14.47,512.0,13152.0,-11680.0,-176.81,-104.98,-131.61,-66.66
14.54,484.0,14448.0,-8964.0,-171.42,-105.31,-121.82,-79.51
14.61,472.0,15360.0,-5624.0,-179.84,-117.47,-110.11,-90.29
14.68,504.0,16120.0,-2148.0,175.79,-115.18,-97.59,-98.34
14.75,164.0,16020.0,1432.0,177.92,-117.24,-84.89,-103.98
14.82,400.0,14940.0,4832.0,163.09,-100.73,-72.08,-106.58
14.89,356.0,13668.0,7708.0,167.95,-102.55,-60.58,-107.72
14.96,412.0,10660.0,10800.0,168.11,-98.56,-44.63,-106.74
15.02,148.0,7620.0,13192.0,183.18,-108.16,-30.01,-104.84
15.09,496.0,5052.0,14416.0,176.62,-95.03,-19.31,-101.17
15.16,400.0,1984.0,14840.0,178.4,-89.63,-7.61,-96.23
15.23,620.0,-1772.0,14880.0,-179.89,-83.37,6.79,-89.77
15.29,392.0,-4324.0,14612.0,-177.05,-72.12,16.48,-82.4
15.36,400.0,-8616.0,12440.0,-176.92,-63.4,34.71,-73.41
15.43,368.0,-10324.0,11824.0,-181.18,-58.28,41.13,-64.4
15.5,588.0,-13200.0,8040.0,-171.75,-39.7,58.65,-53.36
15.56,420.0,-14848.0,5400.0,-170.84,-29.06,70.01,-41.63
15.63,708.0,-15852.0,2476.0,-177.84,-26.36,81.12,-29.81
15.7,1048.0,-16380.0,-1740.0,-175.63,-14.52,96.06,-16.94
15.77,368.0,-16272.0,-4408.0,-178.79,-7.86,105.16,-4.06
15.84,528.0,-15256.0,-7412.0,-165.11,15.33,115.91,9.98
15.9,600.0,-13804.0,-10588.0,-170.95,18.73,127.49,23.91
15.97,556.0,-10916.0,-13408.0,-169.88,28.8,140.85,38.45
16.04,576.0,-8372.0,-15696.0,-180.97,26.62,151.93,52.5
16.11,592.0,-5104.0,-17104.0,-175.83,40.43,163.38,67.06
16.17,572.0,-2416.0,-17732.0,-174.15,50.51,172.24,81.59
16.24,340.0,904.0,-17872.0,-175.01,57.55,-177.1,56.78
16.31,484.0,4084.0,-17148.0,-179.08,33.1,-166.6,34.37
16.38,248.0,7524.0,-15876.0,-185.06,9.65,-154.64,14.34
16.44,360.0,10776.0,-13860.0,-175.1,4.91,-142.14,-2.41
16.51,352.0,13288.0,-11048.0,-172.15,-4.27,-129.74,-16.53
16.58,152.0,14784.0,-8144.0,-168.19,-10.14,-118.85,-28.34
16.65,288.0,15816.0,-4828.0,-175.52,-25.36,-106.98,-38.53
16.72,488.0,16152.0,-1944.0,-172.75,-28.58,-96.86,-46.71
16.79,84.0,16324.0,1284.0,-191.91,-52.13,-85.5,-54.15
16.85,300.0,15012.0,5020.0,-161.92,-24.89,-71.51,-57.53
16.92,424.0,13220.0,8292.0,-166.6,-30.8,-57.9,-59.42
16.99,424.0,10876.0,10812.0,-168.27,-32.33,-45.17,-59.8
17.06,324.0,7448.0,13216.0,-182.2,-44.99,-29.4,-59.21
17.12,360.0,4996.0,14184.0,-175.98,-36.16,-19.4,-57.03
17.19,480.0,1976.0,14900.0,-177.89,-34.78,-7.55,-53.7
17.26,316.0,-1792.0,15044.0,-176.78,-29.65,6.79,-48.85
17.32,324.0,-4684.0,14536.0,-175.23,-23.26,17.86,-42.95
17.39,400.0,-8060.0,12944.0,-177.56,-20.3,31.91,-36.01
17.46,552.0,-10280.0,11692.0,-180.73,-17.57,41.32,-28.64
17.53,620.0,-13300.0,8224.0,-170.65,-1.41,58.27,-19.24
17.59,432.0,-14852.0,5628.0,-171.45,4.54,69.25,-9.33
17.66,648.0,-16136.0,2564.0,-180.41,2.41,80.97,0.6
17.72,508.0,-16256.0,32.0,-178.7,11.07,89.89,10.85
17.78,680.0,-16412.0,-3844.0,-170.86,25.7,103.18,22.2
17.85,724.0,-15460.0,-7264.0,-169.45,34.04,115.17,34.25
17.92,552.0,-13836.0,-9984.0,-174.85,35.59,125.81,46.26
17.99,724.0,-12112.0,-12932.0,-173.38,43.9,136.88,58.68
18.06,840.0,-8172.0,-15356.0,-183.2,40.82,151.98,71.28
18.12,428.0,-6008.0,-16644.0,-169.22,61.78,160.15,84.63
18.19,540.0,-3376.0,-17496.0,168.89,68.67,169.08,97.93
18.26,528.0,924.0,-17724.0,169.73,73.99,-177.02,-248.47
18.33,480.0,4632.0,-17152.0,184.96,64.96,-164.89,-235.49
18.39,608.0,7284.0,-16220.0,170.56,85.48,-155.82,-221.59
18.46,344.0,9348.0,-14656.0,165.66,96.1,-147.47,-207.64
18.53,308.0,11600.0,-12396.0,176.57,90.44,-136.9,-194.38
18.6,312.0,14500.0,-9316.0,173.44,98.59,-122.72,-180.41
18.67,340.0,14816.0,-6532.0,181.71,95.38,-113.79,-167.28
18.74,236.0,16676.0,-1664.0,180.62,101.16,-95.7,-153.24
18.81,468.0,16164.0,1196.0,170.71,116.11,-85.77,-138.73
18.87,164.0,15196.0,4588.0,166.22,125.25,-73.2,-124.01
18.94,424.0,13532.0,7708.0,172.21,123.71,-60.33,-109.58
19.01,484.0,11568.0,10156.0,173.72,126.52,-48.72,-95.3
19.08,244.0,9436.0,11748.0,-187.91,116.4,-38.77,-82.11
19.14,252.0,5704.0,13836.0,-173.05,135.04,-22.4,-67.46
19.21,532.0,2056.0,14900.0,-165.45,146.58,-7.86,-52.13
19.28,412.0,-504.0,14984.0,-166.95,148.94,1.93,-37.41
19.34,596.0,-4652.0,14268.0,-181.85,137.47,18.06,-23.38
19.41,212.0,-7588.0,13260.0,-176.27,146.63,29.78,-8.77
19.48,680.0,-10492.0,10948.0,-177.18,149.07,43.78,5.76
19.54,380.0,-12328.0,9656.0,-176.6,152.95,51.93,19.83
19.61,552.0,-14624.0,6272.0,-177.41,154.91,66.79,34.09
19.68,344.0,-15768.0,3208.0,-182.28,152.87,78.5,47.96
19.74,840.0,-16508.0,-180.0,-174.25,163.54,90.62,62.27
19.81,444.0,-16160.0,-3396.0,-172.65,167.59,101.87,76.48
19.88,604.0,-15248.0,-7068.0,-173.13,169.3,114.87,91.0
19.95,708.0,-14068.0,-10004.0,178.39,166.11,125.42,104.89
20.02,424.0,-11608.0,-13044.0,176.19,170.09,138.33,119.1
20.09,768.0,-9104.0,-15204.0,186.05,161.91,149.09,132.44
20.16,380.0,-5940.0,-16760.0,165.13,184.29,160.48,146.77
20.22,532.0,-2776.0,-17456.0,170.76,179.86,170.96,160.42
20.29,736.0,1060.0,-17628.0,173.7,177.84,-176.56,-186.19
20.36,408.0,4620.0,-17200.0,183.92,168.47,-164.96,-173.41
20.43,348.0,7464.0,-15972.0,175.06,178.07,-154.95,-160.33
20.5,352.0,11272.0,-13668.0,165.82,187.78,-140.49,-146.5
20.57,380.0,13552.0,-11044.0,171.76,182.38,-129.18,-133.11
20.64,384.0,14824.0,-8280.0,168.07,186.41,-119.19,-119.84
20.71,244.0,16176.0,-4552.0,175.53,179.0,-105.72,-107.18
20.78,372.0,16252.0,-1524.0,174.11,180.55,-95.36,-94.69
20.85,424.0,15520.0,1292.0,-190.92,163.68,-85.24,-83.82
20.92,592.0,14772.0,5196.0,-165.79,188.7,-70.62,-71.03
20.99,420.0,13180.0,8104.0,-166.27,188.24,-58.41,-58.34
21.05,456.0,10664.0,10808.0,-167.92,186.59,-44.62,-45.62
21.12,420.0,7744.0,13076.0,-180.89,173.71,-30.64,-33.37
21.19,416.0,5148.0,14020.0,-175.27,179.57,-20.16,-21.13
21.26,652.0,1712.0,14724.0,-184.45,170.47,-6.63,-9.3
21.32,516.0,-1940.0,15084.0,-177.08,178.07,7.33,2.88
21.39,328.0,-4536.0,14356.0,-175.36,180.19,17.53,14.79
21.45,396.0,-8316.0,12804.0,-177.51,178.27,33.0,27.33
21.52,348.0,-10176.0,11708.0,-181.65,174.62,41.0,39.15
21.59,672.0,-13156.0,8236.0,-171.05,185.38,57.95,52.35
21.65,608.0,-14864.0,5816.0,-172.62,184.3,68.63,65.03
21.72,672.0,-16184.0,2328.0,-181.31,175.92,81.81,77.27
21.79,396.0,-16840.0,568.0,-179.73,177.89,88.07,88.98
21.85,608.0,-16340.0,-4284.0,171.0,186.54,104.69,101.55
21.92,520.0,-15564.0,-7064.0,169.11,188.7,114.41,114.49
21.99,488.0,-13984.0,-10420.0,175.7,182.1,126.69,126.95
22.06,568.0,-11472.0,-13252.0,171.97,185.81,139.12,139.82
22.13,564.0,-8308.0,-15556.0,182.4,175.32,151.89,152.02
22.2,708.0,-4872.0,-16888.0,175.44,182.28,163.91,164.46
22.27,544.0,-2144.0,-17432.0,175.5,182.16,172.99,176.53
22.33,408.0,1424.0,-17712.0,175.68,181.67,-175.4,-171.49
22.4,336.0,4964.0,-17084.0,177.72,179.29,-163.8,-159.52
22.47,424.0,7792.0,-15692.0,184.2,172.43,-153.59,-148.18
22.54,452.0,9504.0,-14308.0,181.1,175.06,-146.41,-137.13
22.61,236.0,12872.0,-11112.0,172.97,182.37,-130.8,-125.13
22.68,480.0,15532.0,-7836.0,169.85,184.99,-116.77,-112.57
22.75,340.0,15984.0,-4768.0,169.37,185.09,-106.61,-100.44
22.82,408.0,16336.0,-576.0,-168.09,185.83,-92.02,-88.0
22.89,228.0,15692.0,3060.0,-185.06,168.5,-78.97,-76.9
22.96,428.0,14932.0,5840.0,-178.44,174.95,-68.64,-65.49
23.03,636.0,12512.0,8796.0,-173.31,179.8,-54.89,-53.52
23.09,348.0,10696.0,11080.0,-169.64,183.34,-43.99,-41.46
23.16,520.0,7636.0,13088.0,-175.4,177.36,-30.26,-29.41
23.23,520.0,4612.0,14452.0,-183.66,169.02,-17.7,-17.97
23.3,308.0,148.0,15144.0,-181.83,170.88,-0.56,-5.79
23.36,208.0,-2192.0,15056.0,-171.49,181.68,8.28,6.14
23.43,492.0,-5740.0,14184.0,-169.9,183.45,22.03,18.37
23.49,516.0,-8280.0,13252.0,-176.24,177.43,32.0,30.35
23.56,424.0,-11764.0,10072.0,-175.94,177.87,49.43,42.95
23.63,484.0,-13360.0,8288.0,-172.7,181.67,58.19,55.54
23.69,716.0,-15040.0,5204.0,-168.09,186.51,70.91,68.25
23.76,572.0,-16176.0,1956.0,-176.78,178.05,83.11,80.41
23.83,848.0,-16628.0,-2252.0,174.99,180.07,97.71,92.95
23.89,372.0,-16684.0,-3480.0,186.58,168.89,101.78,103.91
23.96,892.0,-14796.0,-8384.0,167.37,187.92,119.54,117.11
24.03,448.0,-13360.0,-11000.0,168.18,187.32,129.47,129.91
24.1,384.0,-10664.0,-13852.0,175.73,179.74,142.41,142.43
24.17,428.0,-8640.0,-15496.0,180.03,175.43,150.86,154.25
24.24,304.0,-4552.0,-17260.0,182.4,172.76,165.23,166.01
24.31,412.0,-1816.0,-17612.0,181.28,173.81,174.11,177.52
24.37,656.0,2324.0,-17520.0,172.57,182.22,-172.44,-170.25
24.44,348.0,5468.0,-16796.0,172.66,181.94,-161.97,-158.05
24.51,400.0,8336.0,-15308.0,179.15,175.11,-151.43,-146.47
24.58,376.0,11676.0,-12784.0,174.09,179.73,-137.59,-134.35
24.65,600.0,13704.0,-10480.0,186.86,166.67,-127.41,-123.09
24.73,388.0,15416.0,-6668.0,177.55,175.6,-113.39,-110.97
24.8,440.0,16004.0,-3524.0,178.23,174.71,-102.42,-99.2
24.86,340.0,16156.0,-160.0,-177.85,174.8,-90.57,-87.58
24.93,516.0,15304.0,3352.0,-177.6,174.79,-77.65,-76.0
25.0,328.0,14236.0,6768.0,-183.06,169.18,-64.57,-64.58
25.07,572.0,11672.0,9696.0,-183.87,168.37,-50.28,-52.89
25.13,392.0,9688.0,11808.0,-173.35,179.12,-39.37,-40.65
25.2,312.0,6932.0,13532.0,-167.89,184.69,-27.12,-28.07
25.27,528.0,3092.0,14732.0,-175.52,177.15,-11.85,-15.64
25.34,212.0,424.0,14976.0,-173.99,179.01,-1.62,-3.35
25.4,392.0,-3204.0,14432.0,-184.11,169.04,12.52,8.05
25.47,236.0,-6776.0,13664.0,-163.59,189.95,26.38,21.1
25.53,468.0,-9288.0,12232.0,-168.4,185.6,37.21,33.84
25.6,564.0,-12092.0,10032.0,-168.4,185.89,50.32,46.64
25.67,520.0,-14168.0,7252.0,-185.56,169.05,62.89,58.57
25.73,468.0,-15768.0,4316.0,-168.23,186.75,74.69,71.38
25.8,540.0,-16516.0,1048.0,-168.87,186.39,86.37,84.05
25.87,552.0,-16364.0,-2200.0,175.4,180.07,97.66,96.19
25.93,928.0,-16008.0,-6352.0,179.52,176.07,111.64,108.3
26.0,496.0,-14644.0,-9136.0,177.2,178.68,121.96,120.71
26.07,648.0,-12452.0,-11928.0,176.11,179.88,133.77,133.13
26.14,572.0,-9612.0,-14544.0,173.28,182.76,146.54,145.94
26.21,492.0,-6576.0,-16260.0,172.62,183.48,157.98,158.47
26.28,316.0,-3416.0,-17452.0,177.07,178.98,168.93,170.55
26.35,524.0,-1668.0,-17500.0,175.98,179.92,174.56,181.99
26.41,736.0,3704.0,-17708.0,190.57,164.68,-168.19,-166.87
26.48,572.0,6744.0,-16336.0,165.52,189.62,-157.57,-154.09
26.55,460.0,10476.0,-14276.0,171.41,183.42,-143.73,-141.58
26.62,308.0,12780.0,-11632.0,174.41,180.24,-132.31,-129.21
26.7,448.0,13540.0,-9156.0,178.16,176.21,-124.07,-117.55
26.76,200.0,14380.0,-5336.0,180.23,173.57,-110.36,-106.0
26.83,304.0,16680.0,-1976.0,184.69,168.72,-96.76,-94.53
26.9,528.0,15992.0,844.0,-171.79,181.42,-86.98,-82.8
26.97,520.0,15252.0,4360.0,-170.02,182.82,-74.05,-71.04
27.04,288.0,13644.0,7468.0,-175.49,177.09,-61.31,-59.33
27.1,280.0,12272.0,9756.0,-177.03,175.38,-51.52,-47.94
27.17,596.0,8788.0,12124.0,-185.05,167.04,-35.94,-36.59
27.24,76.0,5868.0,13832.0,-169.47,182.68,-22.99,-24.12
27.31,328.0,3112.0,14860.0,-169.29,182.96,-11.83,-11.96
27.37,428.0,-960.0,14848.0,-167.8,184.46,3.7,0.84
27.44,392.0,-4136.0,14656.0,-185.78,166.73,15.76,11.85
27.5,416.0,-6260.0,13840.0,-177.09,175.76,24.34,23.61
27.57,412.0,-10132.0,11932.0,-168.08,184.83,40.34,36.37
27.64,440.0,-11992.0,9744.0,-170.37,182.89,50.9,48.95
27.7,660.0,-14484.0,6812.0,-180.37,173.05,64.81,60.92
27.77,576.0,-15620.0,3724.0,-173.73,180.03,76.59,73.28
27.84,376.0,-16516.0,396.0,-165.24,188.81,88.63,86.13
27.9,632.0,-16500.0,-2740.0,175.57,178.69,99.43,97.98
27.97,520.0,-16052.0,-5948.0,176.3,178.09,110.33,109.87
28.04,328.0,-14544.0,-9284.0,181.48,172.94,122.55,121.83
28.1,384.0,-13012.0,-12084.0,179.47,175.02,132.88,133.73
28.17,492.0,-9944.0,-14600.0,170.21,184.21,145.74,146.48
28.24,620.0,-6908.0,-16096.0,169.44,184.91,156.77,158.91
28.31,444.0,-3816.0,-17320.0,176.17,178.0,167.57,170.73
28.38,592.0,-384.0,-17808.0,173.51,180.38,178.76,182.64
28.45,416.0,3408.0,-17408.0,187.14,166.41,-168.92,-166.43
28.52,392.0,6956.0,-16276.0,171.12,182.21,-156.86,-154.07
28.59,424.0,9804.0,-14228.0,166.06,187.03,-145.43,-141.53
28.66,316.0,11856.0,-12536.0,178.18,174.56,-136.6,-130.16
28.73,316.0,14360.0,-9196.0,174.04,178.14,-122.64,-118.12
28.8,212.0,16212.0,-5912.0,181.13,170.65,-110.04,-106.65
28.87,148.0,16112.0,-1792.0,180.0,171.48,-96.35,-94.89
28.94,508.0,16312.0,1544.0,-177.37,173.98,-84.59,-83.31
29.0,364.0,15080.0,4716.0,-165.94,185.3,-72.63,-71.01
29.07,352.0,13628.0,7600.0,-171.94,179.15,-60.85,-59.13
29.14,304.0,11168.0,10360.0,-173.42,177.52,-47.15,-47.15
29.21,596.0,8956.0,12312.0,-186.91,164.03,-36.03,-35.92
29.27,340.0,5932.0,13840.0,-174.83,176.1,-23.2,-23.94
29.34,588.0,1660.0,14680.0,-168.04,182.96,-6.45,-11.03
29.41,408.0,-824.0,15104.0,-169.28,182.11,3.12,1.28
29.47,344.0,-4304.0,14508.0,-180.27,171.28,16.52,12.58
29.54,528.0,-7844.0,13064.0,-173.89,178.01,30.98,25.12
29.6,496.0,-10440.0,11132.0,-181.84,170.56,43.16,37.18
29.67,472.0,-12716.0,9732.0,-174.77,178.15,52.57,49.57
29.74,460.0,-14568.0,6068.0,-175.95,177.23,67.39,62.0
29.8,640.0,-15636.0,3352.0,-184.33,169.32,77.9,73.75
29.87,716.0,-16356.0,612.0,-178.67,175.33,87.86,85.67
29.94,580.0,-16276.0,-3680.0,172.76,181.43,102.74,98.09
30.0,656.0,-15332.0,-7204.0,172.49,182.11,115.17,110.9
30.07,536.0,-14092.0,-9976.0,176.48,178.48,125.3,123.38
30.14,744.0,-12136.0,-12816.0,174.58,180.55,136.56,135.85
30.21,804.0,-9564.0,-15108.0,188.96,166.23,147.66,147.46
30.28,696.0,-4956.0,-17016.0,169.37,185.83,163.76,160.6
30.35,536.0,-2364.0,-17912.0,169.89,185.59,172.48,173.25
30.42,212.0,300.0,-17724.0,173.47,181.95,-179.03,-174.79
30.49,412.0,3928.0,-17132.0,183.53,171.52,-167.09,-163.47
30.56,612.0,8240.0,-15880.0,183.43,171.3,-152.58,-151.64
30.62,588.0,11456.0,-13648.0,172.14,182.51,-139.99,-139.04
30.7,500.0,13448.0,-10944.0,172.51,182.05,-129.14,-126.49
30.77,364.0,14724.0,-7916.0,167.79,186.54,-118.26,-113.85
30.84,388.0,15888.0,-4564.0,173.56,180.37,-106.03,-101.81
30.91,156.0,16560.0,-880.0,-172.28,181.28,-93.04,-89.61
30.97,520.0,16004.0,2244.0,-189.4,163.86,-82.02,-78.94
31.04,64.0,14608.0,5364.0,-167.65,185.34,-69.84,-66.81
31.11,436.0,13188.0,8584.0,-167.83,184.89,-56.94,-54.8
31.17,436.0,10736.0,10836.0,-168.8,183.73,-44.73,-42.65
31.24,328.0,8112.0,12780.0,-179.89,172.47,-32.41,-31.0
31.31,444.0,4440.0,14088.0,-178.55,173.68,-17.49,-19.08
31.38,556.0,1956.0,14804.0,-185.83,166.53,-7.53,-7.81
31.44,368.0,-2160.0,14904.0,-174.76,177.64,8.25,4.28
31.51,504.0,-5540.0,13928.0,-174.31,178.42,21.69,16.39
31.57,364.0,-7848.0,13192.0,-179.23,173.97,30.75,28.25
31.64,504.0,-11668.0,10500.0,-179.37,174.04,48.02,40.7
31.71,472.0,-12940.0,8412.0,-169.2,184.84,56.97,53.59
31.78,500.0,-15064.0,5400.0,-170.72,183.62,70.28,66.28
31.84,668.0,-15960.0,1996.0,-179.11,175.57,82.87,78.47
31.91,508.0,-16304.0,-1472.0,-177.94,177.12,95.16,90.77
31.98,888.0,-15816.0,-5100.0,187.76,167.68,107.87,102.72
32.04,696.0,-14932.0,-7968.0,167.0,188.89,118.09,115.94
32.11,548.0,-13052.0,-11016.0,174.55,181.52,130.16,128.58
32.18,372.0,-11148.0,-13420.0,177.98,178.23,140.28,140.93
32.25,352.0,-8380.0,-15624.0,181.98,174.17,151.79,152.93
32.32,464.0,-4424.0,-17096.0,177.82,178.24,165.49,165.2
32.39,712.0,-1560.0,-17980.0,179.79,176.29,175.04,177.05
32.46,664.0,2596.0,-17604.0,173.39,182.51,-171.61,-170.56
32.53,432.0,5596.0,-16712.0,173.58,182.23,-161.49,-158.26
32.6,448.0,8864.0,-14920.0,179.64,175.88,-149.29,-146.36
32.67,500.0,11316.0,-13100.0,174.79,180.47,-139.18,-134.39
32.74,308.0,13100.0,-11164.0,188.95,165.89,-130.44,-123.51
32.81,348.0,15216.0,-7172.0,174.27,179.96,-115.24,-111.27
32.88,336.0,16272.0,-3356.0,171.99,181.89,-101.65,-98.94
32.95,552.0,16088.0,-204.0,-178.02,175.62,-90.73,-87.32
33.01,444.0,15552.0,3024.0,-180.21,173.13,-79.0,-76.02
33.08,288.0,14104.0,6408.0,-184.34,168.73,-65.57,-64.73
33.15,476.0,12672.0,8784.0,-185.42,167.58,-55.27,-53.63
33.22,448.0,9516.0,11912.0,-172.88,179.98,-38.62,-41.17
33.28,476.0,6700.0,13448.0,-170.0,183.08,-26.48,-28.56
33.35,356.0,3152.0,14888.0,-177.63,175.63,-11.95,-16.19
33.42,340.0,1116.0,14836.0,-175.7,177.93,-4.3,-4.19
33.49,528.0,-2988.0,14396.0,-180.47,173.16,11.73,7.62
33.55,312.0,-6576.0,13676.0,-163.38,190.6,25.68,20.69
33.62,452.0,-9056.0,11980.0,-169.95,184.46,37.09,33.39
33.68,612.0,-12104.0,10008.0,-170.15,184.58,50.41,46.17
33.75,460.0,-13988.0,7184.0,-187.44,167.66,62.82,58.06
33.82,420.0,-15532.0,4152.0,-164.18,191.33,75.03,71.24
33.88,472.0,-16348.0,992.0,-171.23,184.61,86.53,83.83
33.95,472.0,-16456.0,-1856.0,174.6,181.48,96.43,95.77
34.02,768.0,-15804.0,-6564.0,181.08,175.04,112.55,107.96
34.08,420.0,-14580.0,-9052.0,177.45,179.07,121.83,120.42
34.15,708.0,-12816.0,-11980.0,173.54,183.1,133.07,132.99
34.22,540.0,-9832.0,-14564.0,173.34,183.32,145.98,145.79
34.29,396.0,-6704.0,-16476.0,174.01,182.66,157.86,158.28
34.36,540.0,-3300.0,-17484.0,179.71,176.92,169.31,170.3
34.43,400.0,-208.0,-17696.0,177.72,178.83,179.33,182.22
34.5,344.0,3172.0,-17380.0,184.15,172.15,-169.66,-166.54
34.57,512.0,6420.0,-16412.0,165.79,190.23,-158.64,-153.87
34.64,376.0,9972.0,-14644.0,170.78,184.82,-145.75,-141.52
34.71,444.0,12584.0,-12260.0,175.6,179.64,-134.25,-129.58
34.78,392.0,14444.0,-9076.0,180.08,174.74,-122.14,-117.76
34.85,648.0,16092.0,-6056.0,178.58,175.85,-110.62,-106.08
34.92,604.0,16184.0,-2340.0,184.21,169.82,-98.23,-94.69
34.98,200.0,16204.0,900.0,-172.63,181.09,-86.82,-82.95
35.05,332.0,15276.0,4244.0,-173.08,180.29,-74.47,-71.36
35.12,380.0,13540.0,7408.0,-178.13,174.97,-61.32,-59.75
35.19,456.0,11788.0,10200.0,-178.22,174.74,-49.13,-48.09
35.25,320.0,8560.0,11932.0,-183.12,169.75,-35.66,-36.36
35.32,420.0,5820.0,13816.0,-168.56,184.37,-22.84,-23.8
35.39,392.0,3044.0,14788.0,-168.97,184.05,-11.63,-11.41
35.46,564.0,-720.0,15032.0,-167.65,185.35,2.74,1.28
35.52,464.0,-3980.0,14408.0,-187.32,165.81,15.44,12.15
35.59,512.0,-6560.0,13548.0,-172.4,181.01,25.84,24.36
35.65,492.0,-10000.0,11684.0,-169.27,184.27,40.56,37.03
35.72,576.0,-12104.0,9448.0,-173.75,180.1,52.03,49.49
35.79,368.0,-14356.0,6712.0,-181.17,172.9,64.94,61.41
35.85,656.0,-15764.0,3668.0,-174.86,179.51,76.9,73.72
35.92,552.0,-16152.0,-24.0,-167.76,186.89,90.09,86.56
35.98,408.0,-16492.0,-3100.0,175.48,179.47,100.65,98.54
36.05,592.0,-15568.0,-6368.0,176.21,178.92,112.25,110.8
36.12,436.0,-14056.0,-9796.0,181.5,173.76,124.87,122.96
36.19,480.0,-12780.0,-12236.0,179.28,176.14,133.75,134.9
36.26,832.0,-9604.0,-14900.0,174.57,180.75,147.2,147.47
36.33,432.0,-6644.0,-16568.0,168.38,186.92,158.15,160.06
36.4,420.0,-3580.0,-17460.0,174.05,181.08,168.41,172.04
36.47,412.0,644.0,-17724.0,172.08,182.73,-177.92,-175.69
36.53,384.0,4524.0,-17196.0,186.67,167.95,-165.26,-164.29
36.6,384.0,6884.0,-16112.0,168.75,185.79,-156.86,-151.95
36.67,524.0,9752.0,-14608.0,164.82,189.28,-146.27,-139.59
36.74,344.0,12324.0,-11772.0,174.7,178.81,-133.69,-127.86
36.81,292.0,14828.0,-8240.0,171.77,181.23,-119.06,-115.48
36.88,464.0,16272.0,-5036.0,178.57,174.11,-107.2,-103.77
36.95,424.0,16164.0,-2192.0,176.19,176.19,-97.72,-92.19
37.02,412.0,15816.0,1660.0,-188.73,163.16,-84.01,-81.49
37.09,284.0,14976.0,4980.0,-164.34,187.32,-71.61,-69.15
37.16,420.0,12972.0,8168.0,-169.48,181.97,-57.8,-56.98
37.22,424.0,10516.0,10984.0,-170.26,181.12,-43.75,-44.64
37.29,428.0,7580.0,13236.0,-183.83,167.63,-29.8,-32.78
37.36,312.0,5060.0,14180.0,-178.35,173.37,-19.64,-20.92
37.43,332.0,1760.0,14700.0,-182.89,168.94,-6.83,-9.22
37.49,508.0,-1516.0,14896.0,-178.86,173.18,5.81,2.49
37.56,496.0,-4400.0,14424.0,-177.72,174.61,16.96,14.07
37.62,440.0,-8624.0,12536.0,-178.58,174.0,34.53,26.59
37.69,444.0,-10236.0,11420.0,-182.9,170.36,41.87,38.34
37.76,724.0,-13240.0,8120.0,-171.27,182.3,58.48,51.49
37.82,396.0,-14820.0,5744.0,-173.47,180.7,68.81,64.08
37.89,524.0,-16228.0,2528.0,-181.67,172.91,81.15,76.17
37.96,304.0,-16360.0,-136.0,-179.14,175.88,90.48,88.14
38.02,504.0,-16024.0,-4332.0,173.87,181.35,105.13,100.72
38.09,440.0,-15568.0,-7296.0,167.65,187.95,115.11,113.78
38.16,656.0,-13832.0,-10440.0,173.06,182.65,127.04,126.39
38.23,548.0,-10952.0,-13424.0,172.31,183.46,140.79,139.35
38.3,516.0,-7456.0,-16100.0,183.64,172.25,155.15,151.78
38.37,448.0,-6164.0,-16632.0,173.86,182.33,159.66,163.78
38.44,700.0,-1416.0,-17720.0,177.34,178.48,175.43,175.97
38.51,460.0,2384.0,-17560.0,176.2,179.58,-172.27,-171.77
38.58,472.0,5644.0,-16896.0,177.42,178.32,-161.53,-159.59
38.65,404.0,9388.0,-15480.0,183.21,172.35,-148.76,-147.71
38.71,496.0,11168.0,-13512.0,178.72,176.76,-140.43,-135.95
38.79,540.0,14236.0,-10704.0,185.85,169.22,-126.94,-124.3
38.86,264.0,15264.0,-7696.0,173.11,181.74,-116.76,-112.03
38.93,380.0,15896.0,-3652.0,168.5,185.92,-102.94,-99.51
38.99,280.0,16048.0,-540.0,-171.37,182.76,-91.93,-87.52
39.06,524.0,15520.0,3104.0,-183.47,170.27,-78.69,-76.33
39.13,408.0,14980.0,5740.0,-183.56,169.96,-69.03,-65.32
39.2,956.0,11648.0,7424.0,-186.48,166.72,-57.49,-54.45
39.26,136.0,9956.0,11384.0,-173.63,179.31,-41.17,-42.21
39.33,572.0,6540.0,13180.0,-173.33,179.69,-26.39,-29.68
39.4,412.0,3636.0,14356.0,-179.6,173.72,-14.21,-17.55
39.47,364.0,724.0,14784.0,-178.95,174.65,-2.8,-5.43
39.53,316.0,-3148.0,14704.0,-174.5,179.33,12.08,6.74
39.6,268.0,-5876.0,13776.0,-165.72,188.58,23.1,19.5
39.66,480.0,-9588.0,11968.0,-172.27,182.33,38.7,32.38
39.73,508.0,-11040.0,10572.0,-172.08,183.08,46.24,44.73
39.8,404.0,-14152.0,7752.0,-189.57,165.71,61.29,56.5
39.86,624.0,-15452.0,4644.0,-164.77,190.93,73.27,69.62
39.93,400.0,-16160.0,1344.0,-172.58,183.43,85.25,82.19
40.0,416.0,-16320.0,-1936.0,173.66,182.62,96.77,94.59
40.06,704.0,-15496.0,-6292.0,183.66,172.8,112.1,106.72
40.13,568.0,-14940.0,-8448.0,170.36,186.57,119.49,119.52
40.2,484.0,-12924.0,-11656.0,166.89,190.03,132.05,132.51
40.27,524.0,-10076.0,-14440.0,176.47,180.42,145.09,145.08
40.34,680.0,-6716.0,-16264.0,172.21,184.68,157.56,157.91
40.41,460.0,-4124.0,-17296.0,177.87,178.99,166.59,169.8
40.48,552.0,-1180.0,-17756.0,178.2,178.38,176.2,181.4
40.55,320.0,2872.0,-17464.0,183.07,173.05,-170.66,-167.16
40.62,412.0,6648.0,-16488.0,167.48,188.33,-158.04,-154.47
40.69,496.0,9908.0,-14780.0,173.07,182.43,-146.16,-142.25
40.76,192.0,12252.0,-12092.0,172.76,182.39,-134.62,-130.11
40.83,388.0,14312.0,-9248.0,180.63,174.12,-122.87,-118.35
40.9,540.0,16232.0,-5964.0,179.14,175.22,-110.17,-106.59
40.97,588.0,16032.0,-2412.0,185.85,168.19,-98.56,-95.28
41.03,460.0,16280.0,620.0,-171.94,181.81,-87.82,-83.54
41.1,252.0,15380.0,4280.0,-172.64,180.73,-74.45,-71.86
41.17,224.0,13908.0,7336.0,-177.44,175.7,-62.19,-60.25
41.23,380.0,12112.0,9972.0,-178.28,174.69,-50.53,-48.69
41.3,200.0,9264.0,11960.0,-181.33,171.48,-37.76,-37.19
41.37,736.0,6052.0,13908.0,-167.78,184.98,-23.52,-24.57
41.44,376.0,3184.0,14792.0,-169.67,183.18,-12.15,-12.2
41.5,436.0,-960.0,14972.0,-167.87,184.99,3.67,0.65
41.57,540.0,-3928.0,14664.0,-187.8,165.32,15.0,11.52
41.63,292.0,-6648.0,13336.0,-172.77,180.65,26.5,23.84
41.7,456.0,-9752.0,12036.0,-168.76,184.89,39.02,36.44
41.77,576.0,-12120.0,9508.0,-170.76,183.11,51.89,48.95
41.83,504.0,-14220.0,6844.0,-182.32,171.81,64.3,60.79
41.9,624.0,-15512.0,3852.0,-171.12,183.31,76.05,73.3
41.97,704.0,-16348.0,436.0,-167.15,187.52,88.47,86.06
42.03,552.0,-16484.0,-2764.0,176.4,178.47,99.52,97.91
42.1,416.0,-15924.0,-5816.0,178.14,176.87,110.06,109.71
42.17,464.0,-14636.0,-9236.0,185.61,169.43,122.25,121.43
42.24,464.0,-12356.0,-12580.0,164.58,190.53,135.51,134.62
42.31,640.0,-9436.0,-14840.0,170.0,185.19,147.55,147.53
42.37,460.0,-7132.0,-16248.0,169.27,185.93,156.3,159.85
42.44,480.0,-3540.0,-17440.0,175.49,179.39,168.53,171.76
42.51,280.0,-200.0,-17808.0,172.66,181.94,179.36,183.71
42.58,416.0,3468.0,-17420.0,188.73,165.49,-168.74,-165.51
42.65,552.0,6788.0,-16264.0,163.52,190.42,-157.35,-152.8
42.72,512.0,9148.0,-14536.0,168.21,185.33,-147.82,-140.76
42.79,532.0,11964.0,-12192.0,177.32,175.6,-135.54,-129.3
42.86,460.0,14860.0,-8868.0,173.38,178.98,-120.83,-117.09
42.93,472.0,15708.0,-6060.0,181.56,170.48,-111.1,-105.87
43.0,408.0,16100.0,-2128.0,179.53,172.04,-97.53,-94.29
43.07,292.0,16220.0,1548.0,-182.47,168.82,-84.55,-83.08
43.13,476.0,15248.0,4660.0,-165.91,185.25,-73.01,-70.84
43.2,548.0,13240.0,7792.0,-170.55,180.42,-59.52,-58.76
43.27,208.0,10892.0,10660.0,-172.14,178.76,-45.62,-46.58
43.34,544.0,8012.0,12824.0,-186.41,164.57,-32.0,-34.93
43.4,252.0,5484.0,13956.0,-174.66,176.58,-21.45,-22.84
43.47,512.0,1912.0,14692.0,-171.5,179.86,-7.41,-10.34
43.54,460.0,-1444.0,14760.0,-176.76,174.86,5.59,1.74
43.6,300.0,-4088.0,14432.0,-179.53,172.43,15.82,13.15
43.67,260.0,-8280.0,12412.0,-175.44,176.74,33.71,25.85
43.74,400.0,-9552.0,11912.0,-184.53,168.34,38.73,37.21
43.8,540.0,-13012.0,8748.0,-173.8,179.19,56.09,49.87
43.87,664.0,-14700.0,5944.0,-175.24,178.29,67.98,62.39
43.94,468.0,-15752.0,2888.0,-182.85,171.17,79.61,74.4
44.0,372.0,-16592.0,228.0,-180.56,173.9,89.21,86.31
44.07,468.0,-16348.0,-4012.0,170.69,184.03,103.79,98.92
44.13,700.0,-15372.0,-7188.0,172.0,183.14,115.06,111.69
44.2,588.0,-14288.0,-10276.0,178.29,177.14,125.72,124.05
44.27,548.0,-10976.0,-13376.0,172.58,182.99,140.63,137.22
44.34,696.0,-10044.0,-14560.0,184.79,171.08,145.4,148.74
44.41,592.0,-5920.0,-16692.0,173.73,181.85,160.47,161.31
44.48,188.0,-2112.0,-17636.0,168.52,186.98,173.17,174.04
44.55,264.0,636.0,-17664.0,178.13,177.3,-177.94,-174.25
44.62,552.0,4128.0,-17004.0,180.89,174.22,-166.35,-162.74
44.69,604.0,5956.0,-16636.0,188.01,166.78,-160.3,-152.13
44.76,588.0,10948.0,-13736.0,179.95,174.12,-141.44,-140.16
44.83,436.0,13612.0,-11004.0,171.05,182.9,-128.95,-127.41
44.9,356.0,15300.0,-7864.0,169.65,184.17,-117.2,-114.69
44.97,348.0,16192.0,-4848.0,170.3,183.3,-106.67,-102.45
45.04,576.0,16212.0,-640.0,-169.07,184.16,-92.26,-89.91
45.11,284.0,15832.0,3124.0,-186.68,166.34,-78.84,-78.71
45.17,304.0,14620.0,5900.0,-175.42,177.58,-68.02,-66.87
45.24,508.0,12624.0,8868.0,-169.82,183.08,-54.91,-54.56
45.31,356.0,10576.0,10908.0,-173.44,179.43,-44.11,-42.64
45.38,456.0,7588.0,12912.0,-176.63,176.12,-30.44,-30.55
45.45,412.0,4864.0,14460.0,-184.01,168.74,-18.59,-19.1
45.51,424.0,-60.0,15248.0,-183.15,169.65,0.23,-6.78
45.58,468.0,-2372.0,14824.0,-171.61,181.8,9.09,5.17
45.64,372.0,-5544.0,14232.0,-170.7,183.05,21.28,17.4
45.71,492.0,-8172.0,13072.0,-176.64,177.44,32.01,29.5
45.77,616.0,-11564.0,10048.0,-176.11,178.19,49.01,42.16
45.84,660.0,-13212.0,8116.0,-172.51,182.38,58.44,54.9
45.91,700.0,-15188.0,5096.0,-169.36,185.84,71.45,67.7
45.97,552.0,-16028.0,1868.0,-176.74,178.78,83.35,79.99
46.04,584.0,-16484.0,-1992.0,175.53,180.27,96.89,92.5
46.11,260.0,-16304.0,-3136.0,187.49,168.7,100.89,103.4
46.18,460.0,-15048.0,-8256.0,164.81,191.16,118.75,116.76
46.24,632.0,-13380.0,-11140.0,172.63,183.52,129.78,129.4
46.31,344.0,-10196.0,-14068.0,177.87,178.3,144.07,142.07
46.38,308.0,-8836.0,-15248.0,178.95,177.39,149.91,153.94
46.45,376.0,-4412.0,-17276.0,184.03,171.96,165.67,165.74
46.52,480.0,-1888.0,-17588.0,182.35,173.64,173.87,177.24
46.59,444.0,1796.0,-17456.0,171.39,184.31,-174.13,-170.55
46.66,392.0,5444.0,-16780.0,173.01,182.37,-162.03,-158.3
46.73,376.0,8128.0,-14840.0,179.88,175.18,-151.29,-146.67
46.8,404.0,12440.0,-12524.0,173.34,181.3,-135.19,-134.16
46.87,560.0,13744.0,-10164.0,185.4,169.16,-126.48,-122.67
46.94,668.0,15820.0,-6224.0,178.23,175.99,-111.48,-110.36
47.01,424.0,16252.0,-3472.0,184.0,170.12,-102.06,-98.9
47.08,392.0,16180.0,56.0,-172.15,181.69,-89.8,-86.81
47.14,404.0,15624.0,3696.0,-176.59,176.99,-76.69,-75.42
47.21,416.0,14600.0,6428.0,-183.27,170.2,-66.24,-64.18
47.28,588.0,11276.0,10120.0,-183.37,169.91,-48.09,-52.21
47.35,340.0,9460.0,11704.0,-173.05,180.6,-38.95,-39.73
47.42,528.0,6680.0,13456.0,-167.73,185.99,-26.4,-27.09
47.48,324.0,3100.0,14672.0,-174.44,179.34,-11.93,-14.66
47.55,496.0,-12.0,14992.0,-173.31,180.7,0.05,-2.19
47.61,532.0,-3052.0,14532.0,-190.67,163.53,11.86,8.54
47.68,416.0,-6936.0,13380.0,-162.87,191.62,27.4,21.75
47.75,356.0,-9260.0,12036.0,-168.31,186.67,37.57,34.52
47.81,544.0,-12188.0,9544.0,-168.78,186.46,51.94,47.45
47.88,828.0,-13892.0,6708.0,-186.07,169.56,64.23,59.31
47.94,644.0,-15456.0,3956.0,-165.58,190.47,75.64,72.36
48.01,468.0,-16332.0,704.0,-170.85,185.48,87.53,85.0
48.08,620.0,-16476.0,-2060.0,177.42,179.13,97.13,96.75
48.14,452.0,-15692.0,-6204.0,180.62,175.97,111.57,108.78
48.21,788.0,-14324.0,-9320.0,182.88,173.95,123.05,120.97
48.28,516.0,-12812.0,-12096.0,177.98,179.03,133.35,133.26
48.35,568.0,-9384.0,-14804.0,172.7,184.31,147.63,146.27
48.42,516.0,-6896.0,-16476.0,174.16,182.97,157.29,158.66
48.49,448.0,-3148.0,-17416.0,179.95,177.07,169.75,170.7
48.56,384.0,296.0,-17900.0,177.71,179.22,-179.05,-177.22
48.62,380.0,2208.0,-17576.0,192.16,164.61,-172.84,-166.69
48.69,568.0,6712.0,-16340.0,165.99,190.24,-157.67,-153.9
48.76,488.0,10908.0,-13820.0,171.85,184.05,-141.72,-141.14
48.83,520.0,13232.0,-11952.0,181.95,173.9,-132.09,-129.2
48.91,492.0,13860.0,-9684.0,176.78,178.82,-124.94,-117.48
48.98,628.0,14944.0,-6252.0,184.44,170.5,-112.7,-106.39
49.05,36.0,16896.0,-1636.0,183.17,171.21,-95.53,-94.58
49.11,408.0,16144.0,1104.0,-173.27,181.02,-86.09,-82.95
49.18,356.0,15180.0,4492.0,-168.63,185.38,-73.52,-70.78
49.25,284.0,13572.0,7464.0,-173.43,180.35,-61.19,-58.9
49.31,432.0,11632.0,10176.0,-174.95,178.63,-48.82,-47.06
49.38,372.0,9296.0,11852.0,-189.33,164.09,-38.11,-36.06
49.45,256.0,5836.0,13796.0,-173.64,179.6,-22.93,-23.83
49.52,392.0,2068.0,14928.0,-166.95,186.37,-7.89,-10.88
49.58,476.0,-500.0,14748.0,-168.45,185.13,1.94,1.47
49.65,464.0,-4580.0,14332.0,-183.52,170.1,17.72,12.81
49.71,152.0,-6860.0,13800.0,-179.47,174.57,26.43,24.63
49.78,548.0,-10336.0,11068.0,-183.82,170.39,43.04,36.71
49.85,452.0,-12832.0,9368.0,-176.53,178.22,53.87,49.3
49.91,536.0,-14504.0,5924.0,-178.4,176.74,67.78,61.77
49.98,596.0,-15668.0,3440.0,-187.24,168.43,77.62,73.47
50.05,504.0,-16332.0,-656.0,-169.78,186.24,92.3,86.54
50.11,812.0,-16160.0,-3636.0,173.08,183.44,102.68,99.15
50.18,584.0,-15500.0,-7208.0,172.22,184.6,114.94,111.97
50.25,656.0,-13816.0,-10100.0,176.85,180.22,126.17,124.54
50.32,584.0,-11976.0,-12900.0,174.15,183.08,137.13,137.28
50.39,120.0,-10276.0,-14356.0,186.82,170.39,144.4,148.64
50.46,508.0,-6048.0,-16620.0,172.66,184.18,160.0,161.32
50.53,436.0,-2044.0,-17692.0,167.91,188.81,173.41,174.18
50.6,852.0,228.0,-17940.0,179.57,177.08,-179.27,-174.28
50.67,276.0,3764.0,-17224.0,181.5,174.72,-167.67,-162.89
50.73,384.0,6072.0,-16424.0,188.49,167.31,-159.71,-152.16
50.8,460.0,10572.0,-14004.0,183.18,171.95,-142.95,-140.49
50.88,420.0,13428.0,-11020.0,173.74,181.17,-129.37,-127.85
50.95,216.0,15556.0,-7732.0,172.38,182.4,-116.43,-115.11
51.02,280.0,16144.0,-4780.0,171.75,182.92,-106.49,-102.83
51.09,336.0,16440.0,-580.0,-171.26,183.08,-92.02,-90.29
51.15,284.0,15556.0,3024.0,-185.08,169.11,-79.0,-78.9
51.22,132.0,14700.0,5724.0,-180.03,174.15,-68.72,-67.32
51.29,524.0,12536.0,9160.0,-181.34,172.72,-53.84,-55.46
51.36,644.0,10304.0,11072.0,-173.4,180.79,-42.94,-43.23
51.42,444.0,7168.0,13236.0,-175.94,178.28,-28.44,-30.72
51.49,372.0,4476.0,14156.0,-182.5,171.92,-17.55,-18.95
51.56,332.0,-416.0,15036.0,-182.5,172.05,1.58,-6.35
51.62,216.0,-2616.0,14724.0,-171.52,183.72,10.07,5.95
51.69,400.0,-5440.0,14076.0,-168.58,187.01,21.13,18.49
51.76,600.0,-9272.0,12228.0,-175.04,180.78,37.17,31.23
51.82,428.0,-10840.0,10608.0,-175.0,181.34,45.62,43.52
51.89,600.0,-13724.0,7620.0,-186.73,169.78,60.96,55.64
51.96,484.0,-15088.0,4636.0,-167.36,189.62,72.92,68.74
52.02,488.0,-16232.0,1712.0,-175.73,181.61,83.98,81.15
52.09,892.0,-16456.0,-2132.0,174.3,183.29,97.38,93.77
52.16,480.0,-15780.0,-4960.0,185.1,172.8,107.45,105.49
52.22,544.0,-14768.0,-8624.0,170.76,187.31,120.28,118.55
52.29,516.0,-13100.0,-11520.0,168.63,189.58,131.33,131.54
52.36,716.0,-10580.0,-14132.0,178.43,179.77,143.18,143.97
52.43,596.0,-7900.0,-15840.0,174.96,183.16,153.49,156.38
52.5,680.0,-4492.0,-17364.0,179.95,177.92,165.5,168.25
52.57,412.0,-384.0,-17652.0,180.89,176.74,178.75,180.2
52.64,528.0,2980.0,-17592.0,179.29,178.21,-170.39,-168.05
52.71,364.0,6228.0,-16528.0,169.92,187.38,-159.35,-155.47
52.78,360.0,8512.0,-15540.0,176.02,180.94,-151.29,-143.79
52.85,472.0,10980.0,-13236.0,171.96,184.34,-140.32,-131.98
52.92,272.0,14300.0,-9164.0,183.01,172.56,-122.65,-120.09
52.99,384.0,15516.0,-6816.0,176.66,178.68,-113.72,-108.32
53.06,368.0,15584.0,-3892.0,188.75,166.11,-104.02,-97.55
53.13,532.0,15988.0,716.0,-170.59,183.7,-87.44,-85.23
53.19,464.0,15400.0,3996.0,-172.61,181.48,-75.45,-73.43
53.26,332.0,13948.0,7432.0,-178.72,175.2,-61.95,-61.64
53.33,412.0,11728.0,10016.0,-180.2,173.69,-49.5,-49.87
53.4,372.0,9064.0,12124.0,-181.34,172.58,-36.78,-37.9
53.46,624.0,6076.0,13924.0,-166.68,187.34,-23.57,-25.07
53.53,540.0,3320.0,14788.0,-170.37,183.78,-12.65,-12.67
53.6,472.0,-1136.0,14992.0,-169.37,184.78,4.33,0.3
53.66,320.0,-4320.0,14448.0,-186.85,167.65,16.65,11.68
53.73,660.0,-6484.0,13492.0,-177.05,177.88,25.67,23.73
53.79,352.0,-10092.0,11668.0,-170.33,184.77,40.86,36.53
53.86,544.0,-12176.0,9460.0,-176.14,179.34,52.15,49.02
53.93,496.0,-14532.0,6728.0,-181.52,174.23,65.16,61.09
54.0,408.0,-15800.0,3312.0,-176.07,180.03,78.16,73.6
54.06,724.0,-16260.0,384.0,-166.5,190.0,88.65,86.49
54.13,844.0,-16316.0,-3408.0,176.01,180.67,101.8,98.67
54.19,492.0,-15592.0,-6364.0,176.4,180.55,112.2,111.01
54.26,608.0,-13772.0,-10004.0,183.39,173.66,125.99,123.26
54.33,496.0,-12964.0,-12092.0,175.03,182.26,133.01,135.64
54.4,412.0,-9244.0,-15108.0,173.73,183.33,148.54,148.43
54.47,592.0,-6672.0,-16476.0,166.89,190.18,157.95,161.1
54.54,656.0,-3296.0,-17484.0,171.69,185.11,169.32,173.31
54.61,328.0,1488.0,-17784.0,172.08,184.36,-175.22,-174.16
54.68,424.0,4804.0,-17256.0,186.3,170.05,-164.44,-162.55
54.75,340.0,7976.0,-15712.0,169.31,186.88,-153.09,-149.92
54.82,180.0,10116.0,-14128.0,166.68,189.23,-144.4,-137.58
54.89,344.0,13560.0,-10920.0,173.08,182.23,-128.84,-125.15
54.96,436.0,14980.0,-8196.0,169.76,185.22,-118.68,-112.78
55.03,480.0,16184.0,-4432.0,175.9,178.55,-105.32,-100.89
55.1,464.0,16212.0,-1548.0,-174.94,179.12,-95.45,-89.19
55.17,288.0,15752.0,1460.0,-190.57,162.94,-84.7,-78.77
55.24,564.0,14704.0,5352.0,-165.09,187.89,-70.0,-66.52
55.3,464.0,13136.0,8424.0,-168.45,184.23,-57.33,-54.44
55.37,388.0,10756.0,10788.0,-167.54,184.88,-44.91,-42.29
55.44,268.0,8068.0,12752.0,-180.86,171.33,-32.32,-30.74
55.51,232.0,4312.0,14176.0,-178.64,173.41,-16.92,-18.8
55.57,516.0,2136.0,14868.0,-186.79,165.42,-8.18,-7.7
55.64,608.0,-1996.0,14840.0,-175.77,176.4,7.66,4.25
55.7,480.0,-5408.0,13960.0,-175.85,176.63,21.18,16.2
55.77,508.0,-8440.0,12836.0,-179.44,173.46,33.33,28.33
55.84,680.0,-11732.0,10276.0,-179.98,173.36,48.79,40.82
55.9,448.0,-13076.0,8220.0,-169.63,184.39,57.85,53.77
55.97,568.0,-15048.0,5412.0,-171.97,182.41,70.22,66.36
56.04,864.0,-16152.0,1956.0,-180.48,174.23,83.1,78.49
56.1,456.0,-16344.0,-1388.0,-175.98,179.12,94.85,90.88
56.17,864.0,-15680.0,-5320.0,187.72,167.73,108.74,102.91
56.24,644.0,-14928.0,-7988.0,165.8,190.15,118.15,116.2
56.31,632.0,-13280.0,-10964.0,171.96,184.16,129.54,128.91
56.38,376.0,-10936.0,-13400.0,173.01,183.17,140.78,141.58
56.45,540.0,-8324.0,-15484.0,181.6,174.51,151.74,153.52
56.52,504.0,-4080.0,-17356.0,181.26,174.69,166.77,165.65
56.59,608.0,-1536.0,-17864.0,177.52,178.53,175.09,177.6
56.65,472.0,3064.0,-17572.0,172.77,183.06,-170.11,-169.87
56.72,496.0,5356.0,-16796.0,174.71,181.1,-162.31,-157.81
56.79,408.0,10356.0,-14340.0,181.2,174.22,-144.16,-145.51
56.86,372.0,12636.0,-12636.0,175.73,179.8,-135.0,-133.03
56.94,424.0,13788.0,-10492.0,187.82,167.53,-127.27,-121.85
57.01,316.0,15392.0,-6488.0,177.05,177.83,-112.86,-109.67
57.08,272.0,17004.0,-3560.0,177.04,177.56,-101.82,-97.8
57.14,212.0,16500.0,-216.0,-174.85,179.39,-90.75,-86.08
57.21,384.0,15224.0,3432.0,-177.9,175.92,-77.3,-74.56
57.28,308.0,14332.0,6872.0,-182.63,170.95,-64.38,-63.17
57.35,468.0,11680.0,9992.0,-183.88,169.6,-49.45,-51.47
57.41,280.0,9452.0,11776.0,-173.6,180.05,-38.75,-39.26
57.48,304.0,7044.0,13560.0,-168.53,185.16,-27.45,-26.84
57.55,396.0,3228.0,14764.0,-175.57,178.07,-12.33,-14.55
57.62,320.0,600.0,15096.0,-175.2,178.64,-2.28,-2.47
57.68,500.0,-3224.0,14568.0,-188.72,165.14,12.48,8.61
57.75,568.0,-6900.0,13696.0,-163.88,190.31,26.74,21.66
57.81,308.0,-9100.0,12324.0,-168.29,186.34,36.44,34.3
57.88,544.0,-12528.0,9688.0,-168.6,186.21,52.28,47.28
57.95,524.0,-14040.0,6940.0,-186.52,168.73,63.7,59.05
58.01,388.0,-15472.0,4188.0,-163.7,191.94,74.85,72.14
58.08,624.0,-16288.0,756.0,-171.02,184.87,87.34,84.74
58.14,620.0,-16632.0,-1892.0,175.45,180.66,96.49,96.53
58.21,968.0,-15924.0,-6460.0,182.29,173.81,112.08,108.51
58.28,540.0,-14540.0,-9264.0,183.89,172.52,122.5,120.58
58.35,568.0,-12720.0,-12088.0,166.67,189.9,133.54,133.61
58.42,624.0,-10228.0,-14488.0,171.85,184.72,144.78,146.3
58.49,576.0,-6716.0,-16428.0,174.15,182.29,157.76,158.87
58.56,416.0,-3072.0,-17612.0,179.74,176.6,170.11,170.89
58.62,336.0,-56.0,-17816.0,177.73,178.55,179.82,182.78
58.69,732.0,3668.0,-17844.0,193.76,162.26,-168.38,-166.65
58.76,492.0,6796.0,-16448.0,167.4,188.46,-157.55,-153.96
58.83,388.0,10888.0,-14304.0,172.87,182.68,-142.72,-141.39
58.9,472.0,13428.0,-11592.0,178.58,176.85,-130.8,-129.09
58.97,464.0,13904.0,-9864.0,178.27,177.0,-125.35,-117.54
59.04,596.0,16148.0,-5596.0,184.31,170.27,-109.11,-106.06
59.11,624.0,16552.0,-1700.0,183.85,170.47,-95.86,-94.37
59.18,204.0,15852.0,1124.0,-171.41,182.77,-85.94,-82.47
59.25,464.0,15084.0,4356.0,-169.41,184.47,-73.89,-70.45
59.31,380.0,13844.0,7388.0,-173.73,179.84,-61.91,-58.71
59.38,384.0,11656.0,9896.0,-175.41,177.88,-49.67,-47.03
59.45,508.0,9496.0,11824.0,-190.58,162.48,-38.77,-36.36
59.52,236.0,5748.0,13788.0,-172.02,180.83,-22.63,-23.99
59.58,412.0,2132.0,15004.0,-166.33,186.64,-8.09,-11.03
59.65,560.0,-488.0,14944.0,-166.47,186.75,1.87,1.42
59.71,428.0,-4624.0,14404.0,-184.73,168.53,17.8,12.69
59.78,712.0,-6660.0,13564.0,-180.23,173.48,26.15,24.42
59.85,472.0,-10476.0,11372.0,-175.24,178.61,42.65,36.98
59.91,376.0,-12556.0,9552.0,-177.48,176.87,52.74,49.33
59.98,368.0,-14816.0,6336.0,-179.26,175.38,66.85,61.61
60.05,616.0,-16016.0,3424.0,-183.07,172.02,77.93,73.57
60.11,304.0,-16540.0,-24.0,-165.24,190.23,90.08,86.63
60.18,548.0,-16240.0,-3536.0,174.42,181.35,102.28,98.88
60.25,516.0,-15376.0,-6872.0,174.11,181.95,114.08,111.49
60.32,612.0,-14180.0,-10084.0,178.56,177.72,125.42,123.87
60.39,456.0,-11716.0,-12876.0,176.03,180.39,137.7,136.58
60.45,760.0,-8516.0,-15704.0,185.49,171.03,151.53,148.84
60.52,452.0,-5736.0,-16692.0,167.12,189.63,161.04,161.76
60.59,448.0,-2720.0,-17432.0,170.21,186.48,171.13,174.18
60.66,596.0,616.0,-17696.0,172.59,183.83,-178.01,-173.73
60.73,508.0,4412.0,-17272.0,185.34,170.7,-165.67,-162.42
60.8,236.0,8096.0,-15616.0,171.24,184.52,-152.6,-149.89
60.87,136.0,10852.0,-13988.0,163.92,191.6,-142.2,-137.17
60.94,436.0,13112.0,-11160.0,172.44,182.64,-130.4,-124.92
61.01,356.0,14672.0,-8208.0,167.93,186.66,-119.22,-112.55
61.08,356.0,16052.0,-4544.0,174.46,179.55,-105.81,-100.68
61.15,420.0,16460.0,-1224.0,-173.69,179.86,-94.25,-88.83
61.22,568.0,15896.0,2200.0,-189.85,163.22,-82.12,-78.14
61.29,268.0,14764.0,5340.0,-170.28,182.44,-70.12,-66.3
61.35,260.0,12972.0,8448.0,-168.21,184.17,-56.93,-54.21
61.42,340.0,11028.0,10936.0,-166.64,185.5,-45.24,-42.08
61.49,432.0,8084.0,12648.0,-179.34,172.52,-32.58,-30.51
61.56,468.0,4448.0,14108.0,-179.5,172.19,-17.5,-18.74
61.62,316.0,1984.0,15008.0,-186.68,165.11,-7.53,-7.59
61.69,248.0,-2088.0,14916.0,-174.18,177.61,7.97,4.45
61.75,428.0,-5844.0,14176.0,-174.56,177.55,22.4,16.57
61.82,496.0,-7736.0,13124.0,-178.73,173.88,30.52,28.38
61.89,460.0,-11720.0,10304.0,-178.78,174.01,48.68,40.89
61.95,608.0,-13140.0,8264.0,-169.39,184.08,57.83,53.81
62.02,732.0,-15164.0,5364.0,-171.5,182.32,70.52,66.42
62.09,448.0,-15984.0,1908.0,-179.41,174.76,83.19,78.59
62.15,236.0,-16296.0,-1608.0,175.69,178.87,95.64,91.03
62.22,996.0,-15920.0,-5108.0,187.76,167.2,107.79,102.75
62.29,504.0,-14924.0,-7772.0,165.02,190.38,117.51,116.0
62.36,612.0,-13416.0,-11004.0,170.75,184.78,129.36,128.76
62.43,380.0,-10776.0,-13668.0,170.86,184.72,141.75,141.64
62.5,452.0,-8468.0,-15384.0,181.62,173.97,151.17,153.49
62.57,576.0,-3868.0,-17224.0,178.38,177.01,167.34,165.82
62.64,472.0,-2284.0,-17724.0,183.05,172.47,172.66,177.11
62.7,472.0,2656.0,-17384.0,172.79,182.34,-171.31,-170.48
62.77,444.0,5744.0,-16956.0,175.2,179.86,-161.29,-158.31
62.84,344.0,11008.0,-14184.0,181.47,173.33,-142.19,-145.79
62.91,344.0,12784.0,-12460.0,175.63,179.49,-134.26,-133.21
62.98,588.0,13384.0,-10624.0,187.66,167.36,-128.44,-122.15
63.06,280.0,15324.0,-6528.0,176.19,178.27,-113.07,-109.93
63.13,552.0,16112.0,-3472.0,174.56,179.62,-102.16,-97.95
63.19,388.0,16032.0,-240.0,-171.4,182.41,-90.86,-86.04
63.26,380.0,15520.0,3388.0,-177.11,176.27,-77.69,-74.54
63.33,260.0,14192.0,6636.0,-182.29,170.82,-64.94,-63.23
63.4,288.0,11960.0,9544.0,-184.02,168.93,-51.41,-51.78
63.46,528.0,9524.0,11840.0,-173.06,179.93,-38.81,-39.55
63.53,316.0,6944.0,13372.0,-168.54,184.51,-27.44,-27.14
63.6,348.0,2908.0,14584.0,-176.27,176.76,-11.28,-14.77
63.67,248.0,748.0,15100.0,-175.79,177.54,-2.84,-2.8
63.73,332.0,-3152.0,14640.0,-185.8,167.53,12.15,8.42
63.8,700.0,-6920.0,13504.0,-163.64,190.01,27.13,21.52
63.86,520.0,-9004.0,12296.0,-168.3,185.84,36.21,34.12
63.93,468.0,-12444.0,9872.0,-169.24,185.08,51.57,46.97
64.0,544.0,-14268.0,7088.0,-187.56,167.15,63.58,58.67
64.06,500.0,-15472.0,4272.0,-163.21,191.92,74.56,71.76
64.13,408.0,-16292.0,920.0,-171.95,183.43,86.77,84.26
64.19,552.0,-16524.0,-1420.0,177.39,178.21,94.91,95.79
64.26,808.0,-15788.0,-6516.0,181.82,173.7,112.43,107.88
64.33,584.0,-14524.0,-9040.0,179.21,176.71,121.9,120.21
64.4,424.0,-12428.0,-12208.0,166.2,189.86,134.49,133.38
64.47,596.0,-9912.0,-14540.0,173.34,182.81,145.72,146.08
64.54,312.0,-6672.0,-16404.0,174.76,181.36,157.87,158.45
64.6,496.0,-3280.0,-17364.0,180.32,175.75,169.3,170.38
64.67,340.0,276.0,-17796.0,178.95,177.03,-179.11,-177.65
64.74,744.0,4012.0,-17640.0,190.76,165.09,-167.19,-166.42
64.81,552.0,6736.0,-16424.0,167.2,188.58,-157.7,-153.76
64.88,344.0,11004.0,-14400.0,173.27,182.16,-142.61,-141.24
64.95,280.0,12892.0,-11836.0,178.21,177.1,-132.55,-129.13
65.02,480.0,13784.0,-9604.0,179.11,175.9,-124.87,-117.59
65.09,416.0,15660.0,-5560.0,182.66,171.71,-109.55,-106.06
65.16,504.0,16684.0,-1852.0,184.74,169.32,-96.33,-94.5
65.23,112.0,16104.0,920.0,-172.86,181.04,-86.73,-82.77
65.3,340.0,15372.0,4288.0,-169.48,184.07,-74.41,-70.98
65.36,360.0,13460.0,7600.0,-174.31,178.94,-60.55,-59.09
65.43,336.0,12004.0,9744.0,-175.7,177.42,-50.93,-47.53
65.5,168.0,9624.0,12016.0,-191.42,161.4,-38.69,-36.86
65.57,700.0,5700.0,13844.0,-168.58,184.08,-22.38,-24.21
65.63,252.0,2676.0,14912.0,-166.83,185.99,-10.17,-11.5
65.7,520.0,-436.0,14944.0,-168.19,184.75,1.67,1.05
65.76,460.0,-4884.0,14304.0,-187.95,165.04,18.85,12.27
65.83,408.0,-7604.0,13168.0,-165.64,187.92,30.0,25.33
65.9,436.0,-10076.0,11696.0,-163.47,190.49,40.74,38.28
65.97,700.0,-12248.0,9364.0,-169.15,185.03,52.6,50.97
66.03,516.0,-14724.0,6536.0,-179.15,175.17,66.06,62.98
66.1,716.0,-15396.0,3132.0,-182.32,172.27,78.5,74.86
66.16,756.0,-16432.0,-532.0,-171.66,183.24,91.85,87.56
66.23,436.0,-16392.0,-3424.0,173.39,181.88,101.8,99.87
66.3,528.0,-15504.0,-7012.0,175.33,180.11,114.34,112.28
66.37,936.0,-13536.0,-10204.0,183.02,172.59,127.01,124.44
66.44,616.0,-11788.0,-12664.0,171.45,184.39,137.05,137.27
66.51,796.0,-8772.0,-15272.0,188.76,167.06,150.13,149.04
66.58,596.0,-5764.0,-16676.0,166.82,189.1,160.93,161.9
66.64,480.0,-2436.0,-17552.0,171.83,184.0,172.1,174.26
66.71,436.0,1164.0,-17740.0,172.37,183.27,-176.25,-173.5
66.78,436.0,3888.0,-17268.0,184.87,170.53,-167.31,-162.24
66.85,564.0,9148.0,-15436.0,176.72,178.24,-149.35,-149.77
66.92,376.0,11396.0,-13796.0,164.16,190.83,-140.44,-136.91
66.99,400.0,13120.0,-11136.0,172.84,181.84,-130.32,-124.74
67.06,336.0,14516.0,-7876.0,167.12,187.06,-118.48,-112.28
67.13,220.0,15796.0,-4644.0,174.34,179.29,-106.38,-100.52
67.2,284.0,16452.0,-928.0,-174.15,178.97,-93.23,-88.63
67.27,420.0,15784.0,2252.0,-189.05,163.66,-81.88,-78.07
67.34,192.0,14816.0,5512.0,-174.07,178.3,-69.59,-66.43
67.41,636.0,12640.0,8372.0,-169.73,182.37,-56.48,-54.38
67.47,444.0,10872.0,10988.0,-167.52,184.39,-44.7,-42.24
67.54,480.0,8228.0,12692.0,-179.11,172.59,-32.95,-30.69
67.61,324.0,4512.0,14156.0,-180.19,171.3,-17.68,-18.97
67.68,304.0,1872.0,15068.0,-186.65,164.96,-7.08,-7.75
67.74,284.0,-1888.0,14788.0,-173.67,177.99,7.28,4.25
67.81,332.0,-5700.0,14136.0,-173.41,178.52,21.96,16.4
67.87,472.0,-7772.0,13216.0,-178.15,174.26,30.46,28.24
67.94,376.0,-11744.0,10120.0,-178.69,173.92,49.25,40.82
68.01,600.0,-13160.0,8448.0,-170.18,183.15,57.3,53.64
68.07,332.0,-15200.0,5164.0,-171.61,182.04,71.24,66.33
68.14,512.0,-16212.0,1868.0,-178.86,175.21,83.43,78.56
68.21,544.0,-16448.0,-1924.0,176.83,177.66,96.67,91.05
68.27,796.0,-16680.0,-4096.0,189.48,165.5,103.8,102.23
68.34,492.0,-15032.0,-8248.0,165.62,189.49,118.75,115.62
68.41,604.0,-13356.0,-11124.0,172.91,182.48,129.79,128.32
68.48,516.0,-11296.0,-13544.0,178.28,177.23,140.17,140.62
68.55,736.0,-8632.0,-15404.0,179.87,175.6,150.73,152.63
68.62,400.0,-5128.0,-17040.0,182.11,173.2,163.25,164.38
68.69,408.0,-2204.0,-17504.0,183.5,171.71,172.82,175.79
68.76,424.0,1684.0,-17424.0,172.57,182.37,-174.48,-172.0
68.83,572.0,5448.0,-16848.0,174.48,180.25,-162.08,-159.73
68.9,516.0,9624.0,-14648.0,181.47,173.05,-146.69,-147.56
68.96,312.0,12840.0,-12488.0,175.31,179.29,-134.2,-134.98
69.04,348.0,13772.0,-10188.0,186.92,167.74,-126.49,-123.48
69.11,228.0,15716.0,-6220.0,180.12,174.28,-111.59,-111.2
69.18,284.0,16032.0,-3720.0,186.31,168.05,-103.06,-99.89
69.24,480.0,16188.0,-68.0,-175.08,179.01,-90.24,-87.9
69.31,228.0,15400.0,3588.0,-177.32,176.56,-76.88,-76.27
69.38,332.0,13952.0,6916.0,-181.56,172.27,-63.63,-64.53
69.45,396.0,11328.0,10108.0,-182.11,171.79,-48.26,-52.42
69.51,300.0,9208.0,11764.0,-172.0,182.27,-38.05,-39.72
69.58,352.0,6880.0,13580.0,-167.8,186.61,-26.87,-27.1
69.65,464.0,3056.0,14776.0,-173.64,180.79,-11.69,-14.54
69.72,388.0,-596.0,15244.0,-173.26,181.42,2.24,-1.8
69.78,264.0,-3096.0,14924.0,-191.07,163.97,11.72,9.06
69.85,468.0,-6724.0,13696.0,-164.56,190.71,26.15,22.02
69.91,264.0,-9232.0,12236.0,-168.81,186.81,37.03,34.71
69.98,368.0,-12552.0,9412.0,-169.34,186.48,53.14,47.76
70.05,588.0,-14208.0,6952.0,-185.8,170.49,63.93,59.61
70.11,712.0,-15560.0,3792.0,-165.79,190.87,76.3,72.72
70.18,580.0,-16568.0,416.0,-169.98,186.99,88.56,85.52
70.24,464.0,-16252.0,-2612.0,179.24,177.99,99.13,97.36
70.31,368.0,-16248.0,-5940.0,179.82,177.56,110.08,109.26
70.38,464.0,-14796.0,-9052.0,185.64,171.82,121.46,121.09
70.45,436.0,-12560.0,-12256.0,173.05,184.43,134.3,133.8
70.52,536.0,-9840.0,-14436.0,171.93,185.6,145.72,146.63
70.59,496.0,-6932.0,-16132.0,170.83,186.62,156.75,159.14
70.66,524.0,-3812.0,-17248.0,176.08,181.17,167.54,171.13
70.72,448.0,-296.0,-17592.0,173.51,183.42,179.04,183.21
70.79,480.0,3164.0,-17376.0,190.89,165.67,-169.68,-166.05
70.86,500.0,6856.0,-16180.0,164.36,191.89,-157.04,-153.16
70.93,520.0,10176.0,-14036.0,169.19,186.72,-144.06,-140.58
71.0,440.0,11944.0,-12592.0,177.48,178.12,-136.51,-128.92
71.07,396.0,14692.0,-8836.0,174.54,180.39,-121.02,-116.69
71.14,588.0,15168.0,-5924.0,181.51,173.04,-111.33,-105.38
71.21,556.0,16024.0,-2244.0,180.1,173.92,-97.97,-93.79
71.28,40.0,16004.0,1428.0,-183.61,170.04,-84.9,-82.59
71.35,340.0,15068.0,4680.0,-165.66,187.78,-72.75,-70.42
71.41,428.0,13296.0,7776.0,-170.17,183.07,-59.68,-58.24
71.48,360.0,10976.0,10624.0,-172.36,180.76,-45.93,-46.03
71.55,596.0,8128.0,12864.0,-186.84,166.28,-32.29,-34.37
71.62,324.0,5748.0,14136.0,-176.92,176.39,-22.13,-22.43
71.68,484.0,1668.0,14796.0,-172.42,180.91,-6.43,-9.8
71.75,512.0,-1424.0,14812.0,-170.27,183.35,5.49,2.53
71.81,472.0,-3888.0,14464.0,-180.31,173.58,15.05,13.84
71.88,400.0,-8548.0,12596.0,-176.38,177.61,34.16,26.56
71.95,460.0,-9524.0,12188.0,-184.96,169.68,38.0,37.85
72.01,368.0,-13240.0,8748.0,-173.97,180.69,56.55,50.58
72.08,432.0,-14812.0,5896.0,-176.62,178.56,68.29,63.07
72.15,624.0,-15568.0,2968.0,-185.57,170.05,79.21,74.89
72.21,852.0,-16472.0,-1032.0,-172.32,183.68,93.58,87.8
72.28,300.0,-16172.0,-4116.0,171.52,184.98,104.28,100.72
72.35,636.0,-15548.0,-7224.0,171.95,184.85,114.92,113.57
72.42,420.0,-14020.0,-10488.0,180.27,176.65,126.8,125.81
72.49,452.0,-11812.0,-13304.0,177.31,179.69,138.4,138.34
72.56,508.0,-7396.0,-15960.0,184.31,172.7,155.14,150.9
72.63,620.0,-6172.0,-16756.0,174.69,182.7,159.78,163.04
72.7,416.0,-2032.0,-17660.0,170.63,186.46,173.44,175.57
72.76,424.0,1660.0,-17740.0,177.27,179.63,-174.65,-172.38
72.83,368.0,5360.0,-16956.0,179.11,177.6,-162.46,-160.27
72.9,380.0,7968.0,-15692.0,184.34,172.18,-153.08,-148.81
72.97,596.0,10596.0,-13532.0,180.21,175.93,-141.94,-137.15
73.04,504.0,13804.0,-10500.0,184.16,171.56,-127.26,-125.26
73.11,520.0,15020.0,-7880.0,172.89,182.66,-117.68,-112.93
73.18,528.0,15708.0,-3840.0,167.21,187.91,-103.74,-100.27
73.25,460.0,16016.0,-552.0,-170.5,184.31,-91.97,-87.93
73.32,380.0,15680.0,3136.0,-184.02,170.44,-78.69,-76.68
73.39,300.0,14996.0,5768.0,-185.23,169.05,-68.96,-65.68
73.46,560.0,13160.0,8072.0,-186.87,167.12,-58.48,-54.85
73.52,264.0,9960.0,11384.0,-173.57,180.1,-41.18,-42.53
73.59,492.0,6604.0,13396.0,-173.22,180.57,-26.24,-29.89
73.66,348.0,4068.0,14588.0,-179.7,174.4,-15.58,-17.84
73.73,360.0,868.0,14996.0,-179.13,175.17,-3.31,-5.72
73.79,468.0,-2976.0,14712.0,-175.94,178.58,11.44,6.37
73.86,460.0,-6064.0,13820.0,-165.98,188.98,23.69,19.26
73.92,500.0,-9692.0,11968.0,-171.38,183.96,39.0,32.29
73.99,504.0,-11496.0,10756.0,-172.78,183.14,46.9,44.72
74.06,352.0,-14432.0,7772.0,-189.57,166.53,61.7,56.59
74.12,404.0,-15764.0,4572.0,-165.4,191.14,73.83,69.78
74.19,392.0,-16116.0,1528.0,-174.08,182.81,84.58,82.21
74.26,800.0,-16436.0,-1616.0,177.98,179.13,95.62,94.28
74.32,516.0,-15396.0,-6460.0,184.38,172.84,112.76,106.52
74.39,436.0,-14680.0,-8936.0,170.29,187.47,121.33,119.59
74.46,624.0,-12568.0,-11736.0,169.18,188.73,133.04,132.6
74.53,448.0,-10668.0,-13884.0,174.08,183.87,142.46,145.09
74.6,512.0,-6524.0,-16396.0,176.45,181.27,158.3,157.79
74.67,760.0,-2876.0,-17556.0,181.6,176.17,170.7,169.97
74.74,152.0,244.0,-17796.0,179.59,178.24,-179.21,-177.96
74.81,572.0,3672.0,-17544.0,191.28,166.43,-168.18,-166.72
74.88,472.0,6608.0,-16556.0,167.5,190.08,-158.24,-154.0
74.94,460.0,10748.0,-14652.0,172.82,184.39,-143.74,-141.44
75.02,264.0,14444.0,-12680.0,175.37,181.64,-131.28,-128.88
75.09,332.0,15008.0,-10208.0,179.31,177.49,-124.22,-117.2
75.16,544.0,15452.0,-5300.0,183.77,172.41,-108.93,-105.44
75.23,408.0,16172.0,-1816.0,182.5,173.37,-96.41,-93.7
75.29,400.0,15676.0,1064.0,-171.05,184.57,-86.12,-81.78
75.36,340.0,14920.0,4492.0,-171.84,183.4,-73.24,-69.83
75.43,176.0,13624.0,7740.0,-179.02,175.93,-60.4,-58.23
75.5,260.0,11328.0,10368.0,-176.27,178.49,-47.53,-46.33
75.57,288.0,9436.0,11792.0,-190.82,163.82,-38.67,-35.49
75.63,536.0,5428.0,13808.0,-169.5,184.87,-21.46,-22.84
75.7,252.0,2176.0,14876.0,-167.09,187.4,-8.32,-9.99
75.77,324.0,-388.0,15020.0,-168.62,186.02,1.48,2.09
75.83,528.0,-4888.0,14376.0,-185.62,168.96,18.78,13.41
75.9,444.0,-7172.0,13696.0,-179.17,175.88,27.64,25.37
75.96,496.0,-10512.0,11452.0,-179.46,175.78,42.55,37.64
76.03,488.0,-12336.0,9652.0,-176.59,179.08,51.96,49.97
76.1,604.0,-14476.0,6300.0,-179.22,176.61,66.48,62.22
76.16,768.0,-15736.0,3324.0,-187.5,168.7,78.07,73.94
76.23,384.0,-16564.0,-388.0,-165.44,191.13,91.34,87.14
76.3,444.0,-16412.0,-3568.0,173.4,183.53,102.27,99.65
76.36,688.0,-15540.0,-7232.0,174.56,182.58,114.96,112.3
76.43,484.0,-14204.0,-10140.0,182.41,174.97,125.52,124.44
76.5,368.0,-12512.0,-12468.0,169.13,188.34,134.9,137.28
76.57,240.0,-10932.0,-13992.0,188.56,168.7,142.0,148.27
76.64,376.0,-5476.0,-16700.0,165.92,190.79,161.85,161.6
76.71,392.0,-2108.0,-17664.0,170.47,186.27,173.19,174.25
76.78,556.0,1272.0,-17872.0,177.28,179.36,-175.93,-173.71
76.85,448.0,4428.0,-17244.0,182.3,174.15,-165.6,-162.02
76.92,532.0,5840.0,-16992.0,190.46,165.68,-161.03,-151.64
76.99,340.0,11228.0,-13720.0,179.86,175.44,-140.7,-139.56
77.06,400.0,13896.0,-10888.0,173.48,181.72,-128.08,-126.85
77.13,156.0,15180.0,-7792.0,171.27,183.83,-117.17,-114.21
77.2,252.0,15796.0,-4676.0,171.06,183.77,-106.49,-101.97
77.27,284.0,16520.0,-564.0,-170.59,183.85,-91.96,-89.47
77.34,216.0,15764.0,3096.0,-185.02,169.19,-78.89,-78.15
77.4,160.0,14744.0,5320.0,-179.37,174.77,-70.16,-66.78
77.47,404.0,12536.0,9044.0,-184.15,169.7,-54.19,-55.2
77.54,304.0,10284.0,11232.0,-172.86,181.08,-42.48,-42.93
77.61,616.0,6948.0,13336.0,-175.77,178.21,-27.52,-30.36
77.67,204.0,4456.0,14392.0,-181.54,172.69,-17.2,-18.54
77.74,464.0,316.0,15160.0,-180.25,174.09,-1.19,-6.17
77.81,380.0,-2444.0,14980.0,-170.07,184.71,9.27,6.08
77.87,248.0,-5528.0,14104.0,-171.2,183.86,21.4,18.27
77.94,452.0,-8720.0,12568.0,-176.34,178.98,34.75,30.66
78.0,632.0,-10888.0,10724.0,-176.76,178.92,45.43,42.86
78.07,644.0,-13696.0,7912.0,-188.61,167.29,59.99,54.79
78.14,532.0,-15144.0,4812.0,-167.19,189.16,72.37,67.9
78.2,456.0,-16060.0,1728.0,-175.74,181.0,83.86,80.35
78.27,612.0,-16492.0,-2196.0,174.29,182.75,97.58,93.04
78.34,344.0,-15624.0,-5484.0,185.66,171.77,109.34,104.98
78.41,744.0,-14736.0,-8676.0,166.25,191.56,120.49,118.38
78.47,424.0,-12976.0,-11588.0,170.86,187.13,131.77,131.28
78.54,444.0,-10808.0,-13800.0,175.83,182.2,141.93,143.75
78.61,572.0,-7196.0,-16268.0,177.26,180.62,156.14,156.32
78.68,656.0,-4348.0,-17304.0,182.75,175.11,165.9,168.07
78.75,448.0,-168.0,-17648.0,180.51,177.16,179.45,180.15
78.82,768.0,2260.0,-17604.0,179.51,178.1,-172.68,-168.36
78.89,484.0,6300.0,-16584.0,169.36,187.87,-159.2,-155.7
78.96,360.0,8756.0,-15780.0,174.95,181.97,-150.98,-143.89
79.03,332.0,11328.0,-12808.0,171.27,185.02,-138.51,-131.83
79.1,460.0,13956.0,-8892.0,182.74,172.97,-122.5,-119.91
79.17,336.0,15240.0,-6388.0,176.71,178.77,-112.74,-108.05
79.24,412.0,16248.0,-3288.0,187.43,167.64,-101.44,-96.93
79.31,468.0,16392.0,916.0,-172.73,181.93,-86.8,-84.71
79.37,396.0,15312.0,4136.0,-173.77,180.71,-74.88,-72.96
79.44,248.0,13880.0,7272.0,-177.89,176.43,-62.35,-61.19
79.51,480.0,11956.0,9976.0,-179.77,174.44,-50.16,-49.5
79.58,132.0,9088.0,11944.0,-181.27,172.89,-37.27,-37.77
79.64,448.0,5972.0,13928.0,-166.15,188.04,-23.21,-24.87
79.71,332.0,3264.0,14804.0,-170.34,184.01,-12.43,-12.45
79.78,428.0,-936.0,15036.0,-168.56,185.78,3.56,0.47
79.84,508.0,-3832.0,14700.0,-189.05,165.57,14.61,11.32
79.91,152.0,-6772.0,13372.0,-169.53,185.37,26.86,23.99
79.97,344.0,-9892.0,11948.0,-167.77,187.37,39.62,36.78
80.04,460.0,-12056.0,9464.0,-169.14,186.25,51.87,49.45
80.11,572.0,-14316.0,6992.0,-183.05,172.55,63.97,61.24
80.17,572.0,-15596.0,3732.0,-169.18,186.65,76.54,73.96
80.24,548.0,-16388.0,344.0,-167.92,188.14,88.8,86.71
80.31,608.0,-16472.0,-2912.0,177.23,179.01,100.03,98.58
80.37,448.0,-15736.0,-5988.0,177.5,178.86,110.83,110.68
80.44,412.0,-14020.0,-9820.0,183.06,173.31,125.01,122.84
80.51,732.0,-12596.0,-12260.0,180.06,176.5,134.23,134.87
80.58,680.0,-9452.0,-14552.0,171.17,185.34,146.99,147.7
80.65,528.0,-6964.0,-16280.0,168.26,188.19,156.84,160.2
80.72,572.0,-3716.0,-17368.0,173.24,182.91,167.92,172.22
80.79,520.0,1428.0,-17796.0,171.36,184.42,-175.41,-175.15
80.86,408.0,4724.0,-17232.0,188.48,167.27,-164.67,-163.62
80.93,280.0,6996.0,-16132.0,161.69,193.97,-156.55,-150.82
81.0,312.0,8764.0,-14564.0,166.27,188.88,-148.96,-138.9
81.07,304.0,12408.0,-11820.0,175.62,178.65,-133.61,-127.25
81.14,308.0,14980.0,-7972.0,172.02,181.69,-118.02,-114.79
81.21,544.0,16012.0,-5200.0,178.46,174.96,-107.99,-103.2
81.28,316.0,16036.0,-2004.0,176.98,176.01,-97.12,-91.63
81.34,552.0,16068.0,1436.0,-190.81,161.7,-84.89,-81.18
81.41,264.0,15032.0,4928.0,-163.94,188.24,-71.85,-68.84
81.48,536.0,13084.0,7932.0,-168.82,183.1,-58.77,-56.74
81.55,364.0,10964.0,10976.0,-170.14,181.6,-44.97,-44.54
81.61,356.0,7336.0,13068.0,-184.15,167.55,-29.31,-32.63
81.68,116.0,5052.0,14080.0,-177.63,174.37,-19.74,-20.74
81.75,236.0,2020.0,14848.0,-186.26,165.82,-7.75,-9.35
81.81,364.0,-1628.0,14952.0,-177.3,174.92,6.21,2.53
81.88,392.0,-4692.0,14372.0,-178.42,174.12,18.08,14.19
81.95,416.0,-8720.0,12368.0,-179.47,173.41,35.19,26.74
82.01,468.0,-10440.0,11380.0,-182.07,171.54,42.53,38.61
82.08,680.0,-13196.0,8220.0,-172.99,180.96,58.08,51.61
82.15,372.0,-14976.0,5620.0,-174.76,179.74,69.43,64.19
82.21,460.0,-15816.0,2276.0,-182.57,172.39,81.81,76.31
82.28,384.0,-16424.0,120.0,-177.0,178.44,89.58,88.32
82.34,556.0,-16060.0,-4316.0,171.63,183.92,105.04,100.85
82.41,508.0,-15548.0,-7496.0,169.92,185.98,115.74,113.84
82.48,584.0,-13624.0,-10656.0,178.72,177.35,128.03,126.23
82.55,672.0,-11608.0,-13148.0,179.69,176.53,138.56,138.54
82.62,624.0,-6916.0,-16156.0,184.51,171.72,156.83,151.2
82.69,400.0,-6372.0,-16648.0,171.39,185.33,159.06,163.39
82.76,516.0,-2372.0,-17448.0,166.84,189.5,172.26,175.94
82.83,432.0,1152.0,-17800.0,174.63,181.39,-176.3,-172.13
82.9,372.0,5624.0,-16924.0,178.02,177.63,-161.62,-159.96
82.97,480.0,9288.0,-15576.0,184.37,171.14,-149.19,-148.16
83.04,428.0,9904.0,-13752.0,179.33,176.09,-144.24,-136.82
83.11,296.0,13104.0,-10376.0,180.15,174.62,-128.37,-125.06
83.18,536.0,14980.0,-7668.0,171.37,183.1,-117.11,-112.66
83.25,480.0,15768.0,-4004.0,167.94,186.14,-104.25,-100.2
83.32,524.0,15952.0,-648.0,-173.4,180.31,-92.33,-88.15
83.38,352.0,15548.0,3512.0,-184.58,168.77,-77.27,-76.83
83.45,376.0,15056.0,5756.0,-183.33,169.98,-69.08,-65.76
83.52,204.0,12664.0,8996.0,-181.12,171.89,-54.61,-54.21
83.59,272.0,10040.0,11428.0,-174.29,178.69,-41.3,-42.06
83.66,448.0,6760.0,13520.0,-174.05,179.0,-26.57,-29.43
83.72,340.0,4092.0,14492.0,-179.09,174.21,-15.77,-17.47
83.79,404.0,944.0,14952.0,-177.89,175.56,-3.61,-5.4
83.85,496.0,-2868.0,14800.0,-170.91,182.7,10.97,6.84
83.92,316.0,-5824.0,13976.0,-168.65,185.31,22.62,19.35
83.99,380.0,-8700.0,12380.0,-174.31,179.94,35.1,31.72
84.05,556.0,-10816.0,10820.0,-174.9,179.64,44.99,43.8
84.12,376.0,-14392.0,7620.0,-188.91,165.73,62.1,55.76
84.19,456.0,-15376.0,4336.0,-165.57,189.62,74.25,68.99
84.25,408.0,-16220.0,1372.0,-173.42,182.22,85.17,81.54
84.32,620.0,-16512.0,-1932.0,173.53,182.43,96.67,93.99
84.39,808.0,-15728.0,-6428.0,185.01,171.18,112.23,106.11
84.45,764.0,-14540.0,-9024.0,164.18,192.53,121.83,119.59
84.52,404.0,-12696.0,-11728.0,169.86,187.05,132.73,132.46
84.59,480.0,-10680.0,-14140.0,174.47,182.46,142.94,144.93
84.66,456.0,-6684.0,-16444.0,175.41,181.35,157.88,157.61
84.73,684.0,-3548.0,-17428.0,181.06,175.72,168.49,169.54
84.8,352.0,276.0,-17856.0,179.76,176.93,-179.11,-178.41
84.87,460.0,3160.0,-17700.0,189.61,167.02,-169.88,-167.27
84.94,528.0,6588.0,-16476.0,167.48,188.92,-158.21,-154.55
85.01,448.0,10876.0,-14436.0,173.59,182.49,-143.01,-141.97
85.08,524.0,12580.0,-11752.0,176.33,179.66,-133.05,-129.67
85.15,456.0,13576.0,-9580.0,178.89,176.81,-125.21,-118.06
85.22,500.0,15412.0,-5704.0,181.56,173.5,-110.31,-106.45
85.29,372.0,16704.0,-1952.0,184.86,169.85,-96.67,-94.85
85.36,176.0,16108.0,992.0,-171.74,182.81,-86.48,-82.95
85.42,496.0,15424.0,4412.0,-171.06,183.18,-74.04,-71.15
85.49,296.0,13680.0,7312.0,-174.86,179.13,-61.88,-59.37
85.56,356.0,12012.0,9852.0,-176.92,176.85,-50.64,-47.79
85.63,192.0,9544.0,12040.0,-191.96,161.56,-38.4,-37.05
85.69,580.0,5776.0,14128.0,-169.92,183.48,-22.24,-24.4
85.76,444.0,2472.0,15000.0,-167.32,186.27,-9.36,-11.56
85.83,512.0,-260.0,14932.0,-167.11,186.67,1.0,0.85
85.89,468.0,-4876.0,14464.0,-186.29,167.5,18.63,12.22
85.96,340.0,-7168.0,13440.0,-177.31,177.04,28.07,24.42
86.02,444.0,-10556.0,11332.0,-173.76,180.91,42.97,37.15
86.09,756.0,-12392.0,9296.0,-174.5,180.67,53.12,49.75
86.16,468.0,-14740.0,6540.0,-180.18,175.27,66.07,61.9
86.22,544.0,-15720.0,3068.0,-181.08,174.73,78.96,74.1
86.29,292.0,-16656.0,84.0,-165.81,190.43,89.71,87.07
86.35,636.0,-16368.0,-3576.0,175.65,180.82,102.32,99.08
86.42,584.0,-15468.0,-6916.0,175.28,181.46,114.09,111.63
86.49,596.0,-13980.0,-10076.0,180.29,176.67,125.78,123.98
86.56,348.0,-11804.0,-12680.0,178.06,179.05,137.05,136.52
86.63,700.0,-9128.0,-15072.0,189.97,167.19,148.8,148.24
86.7,596.0,-5996.0,-16672.0,168.3,188.91,160.22,161.1
86.77,444.0,-2552.0,-17564.0,169.93,187.2,171.73,173.7
86.84,456.0,76.0,-17756.0,169.95,187.0,-179.75,-174.15
86.9,424.0,4168.0,-17376.0,185.06,171.4,-166.51,-163.01
86.97,484.0,7992.0,-16076.0,181.72,174.44,-153.57,-151.16
87.04,168.0,11628.0,-13672.0,171.64,184.31,-139.62,-138.46
87.11,308.0,14028.0,-10828.0,173.72,182.13,-127.66,-125.8
87.19,284.0,14624.0,-8344.0,168.46,187.22,-119.71,-113.35
87.25,120.0,15780.0,-4408.0,174.92,180.2,-105.61,-101.33
87.32,272.0,16404.0,-1040.0,-173.26,181.48,-93.63,-89.23
87.39,540.0,15844.0,2232.0,-191.41,162.94,-81.98,-78.49
87.46,268.0,14648.0,5564.0,-163.41,190.63,-69.2,-66.02
87.53,452.0,13000.0,8704.0,-166.64,187.12,-56.2,-53.7
87.6,248.0,10964.0,10904.0,-167.27,186.27,-45.16,-41.58
87.66,412.0,8152.0,12792.0,-179.37,173.86,-32.51,-29.97
87.73,504.0,4084.0,14300.0,-180.85,172.15,-15.94,-18.08
87.8,384.0,1332.0,15108.0,-186.8,166.39,-5.04,-6.65
87.86,424.0,-1688.0,14748.0,-173.49,179.85,6.53,5.24
87.93,432.0,-5568.0,14172.0,-172.74,180.71,21.45,17.35
88.0,368.0,-7628.0,13288.0,-177.61,176.19,29.86,29.15
88.06,504.0,-11760.0,10292.0,-176.93,176.93,48.81,41.76
88.13,468.0,-13252.0,8360.0,-169.79,184.68,57.75,54.61
88.2,524.0,-15076.0,5188.0,-170.25,184.49,71.01,67.32
88.26,724.0,-16128.0,2092.0,-177.98,177.08,82.61,79.46
88.33,780.0,-16556.0,-2184.0,176.07,179.26,97.51,92.04
88.4,292.0,-16788.0,-2908.0,188.88,166.93,99.83,102.77
88.46,584.0,-14952.0,-8092.0,166.63,188.93,118.42,115.85
88.53,692.0,-12924.0,-11052.0,174.85,180.93,130.54,128.51
88.6,448.0,-10316.0,-14044.0,178.37,177.58,143.7,141.19
88.67,540.0,-8912.0,-15424.0,181.4,174.76,149.98,153.01
88.74,292.0,-4528.0,-17240.0,182.38,173.52,165.28,164.95
88.81,460.0,-1948.0,-17768.0,183.4,172.53,173.74,176.46
88.88,392.0,1820.0,-17704.0,172.37,183.33,-174.13,-171.3
88.95,416.0,5452.0,-16912.0,174.15,181.29,-162.13,-159.05
89.02,564.0,9404.0,-14668.0,180.59,174.59,-147.34,-146.93
89.09,624.0,12036.0,-12788.0,174.82,180.32,-136.74,-134.63
89.16,404.0,14508.0,-9556.0,186.53,168.42,-123.37,-122.79
89.23,644.0,15608.0,-6480.0,179.99,174.91,-112.55,-110.82
89.3,300.0,16228.0,-3464.0,187.04,167.71,-102.05,-99.46
89.37,404.0,16504.0,-32.0,-174.98,179.54,-90.11,-87.48
89.43,308.0,15340.0,3456.0,-176.92,177.37,-77.3,-75.88
89.5,352.0,14092.0,6592.0,-181.47,172.69,-64.93,-64.3
89.57,92.0,11360.0,10400.0,-182.91,171.2,-47.53,-52.18
89.63,348.0,9456.0,11828.0,-173.33,181.19,-38.64,-39.8
89.7,192.0,6916.0,13696.0,-167.54,187.08,-26.79,-27.14
89.77,288.0,3052.0,14780.0,-173.73,180.92,-11.67,-14.57
89.84,464.0,-656.0,15176.0,-172.65,182.25,2.48,-1.75
89.9,464.0,-2904.0,14668.0,-193.17,162.1,11.2,8.94
89.97,664.0,-6880.0,13736.0,-161.49,193.98,26.61,22.16
90.03,544.0,-9756.0,11992.0,-168.5,187.35,39.13,35.09
90.1,428.0,-12300.0,9624.0,-168.14,188.06,51.96,48.06
90.17,564.0,-14180.0,6936.0,-185.66,170.87,63.93,59.9
90.23,660.0,-15440.0,3920.0,-167.98,188.9,75.75,72.8
90.3,576.0,-16336.0,652.0,-170.19,186.95,87.71,85.49
90.36,716.0,-16548.0,-2764.0,179.74,177.59,99.48,97.36
90.43,692.0,-16136.0,-5876.0,180.4,177.11,110.01,109.22
90.5,428.0,-15156.0,-8352.0,188.12,169.46,118.86,120.64
90.57,468.0,-12480.0,-12188.0,165.33,192.1,134.32,133.87
90.64,372.0,-9792.0,-14504.0,170.51,186.96,145.98,146.8
90.71,440.0,-7088.0,-16184.0,173.37,184.03,156.35,159.1
90.77,592.0,-3504.0,-17340.0,176.98,180.17,168.58,171.14
90.84,432.0,-420.0,-17756.0,173.7,183.23,178.64,183.16
90.91,508.0,2692.0,-17300.0,191.57,164.96,-171.16,-166.29
90.98,356.0,6828.0,-16316.0,165.09,191.02,-157.29,-153.45
91.05,376.0,10580.0,-13964.0,170.37,185.4,-142.85,-140.79
91.12,388.0,12092.0,-12392.0,178.93,176.66,-135.7,-129.11
91.19,452.0,14576.0,-9164.0,175.23,179.78,-122.16,-117.03
91.26,340.0,15464.0,-5976.0,181.51,173.04,-111.13,-105.65
91.33,252.0,16000.0,-2104.0,179.38,174.69,-97.49,-93.93
91.4,480.0,16052.0,1732.0,-177.82,175.94,-83.84,-82.25
91.47,296.0,15160.0,4560.0,-167.96,185.65,-73.26,-70.11
91.53,444.0,13756.0,7524.0,-174.82,178.51,-61.32,-58.42
91.6,236.0,11544.0,10336.0,-171.82,181.26,-48.16,-46.41
91.67,536.0,8020.0,12912.0,-188.6,164.33,-31.85,-34.77
91.74,356.0,5436.0,14272.0,-172.71,180.48,-20.85,-22.4
91.81,320.0,1696.0,14860.0,-177.8,175.52,-6.51,-10.11
91.87,524.0,-1764.0,14980.0,-178.57,175.06,6.72,2.08
91.94,540.0,-4060.0,14372.0,-181.33,172.71,15.77,13.46
92.0,584.0,-7916.0,13068.0,-181.94,172.3,31.21,25.59
92.07,424.0,-9936.0,11944.0,-184.69,170.03,39.76,37.2
92.14,372.0,-13236.0,8408.0,-173.69,181.26,57.57,50.14
92.2,376.0,-14804.0,5816.0,-176.17,179.42,68.55,62.76
92.27,536.0,-15796.0,2864.0,-184.67,171.42,79.72,74.76
92.33,868.0,-16520.0,-536.0,-179.37,177.15,91.86,87.11
92.4,388.0,-16532.0,-3884.0,171.61,185.32,103.22,99.83
92.47,608.0,-15396.0,-7312.0,170.77,186.45,115.4,112.74
92.54,468.0,-13804.0,-10456.0,176.08,181.37,127.14,125.4
92.61,504.0,-11560.0,-13184.0,173.5,184.1,138.76,138.29
92.68,556.0,-7652.0,-15636.0,186.31,171.33,153.92,150.63
92.75,876.0,-5152.0,-17140.0,170.5,187.44,163.27,163.47
92.81,280.0,-2248.0,-17628.0,168.24,189.68,172.73,176.08
92.88,468.0,748.0,-17824.0,177.57,180.05,-177.6,-172.22
92.95,420.0,5096.0,-17036.0,180.27,176.87,-163.35,-160.45
93.02,472.0,6448.0,-16112.0,185.83,171.06,-158.19,-149.59
93.09,392.0,9500.0,-14040.0,182.19,173.95,-145.92,-138.41
93.16,344.0,13560.0,-11108.0,177.59,177.89,-129.32,-126.38
93.23,376.0,15128.0,-7820.0,170.15,185.07,-117.34,-113.73
93.3,308.0,15932.0,-4348.0,168.36,186.54,-105.26,-101.24
93.37,704.0,16348.0,-692.0,-173.51,181.03,-92.42,-89.04
93.44,-16.0,15756.0,3712.0,-186.58,167.66,-76.74,-77.63
93.51,324.0,14556.0,5556.0,-177.93,176.39,-69.11,-66.1
93.57,252.0,12540.0,8928.0,-174.22,179.84,-54.55,-54.03
93.64,584.0,10284.0,11112.0,-175.91,178.1,-42.78,-42.09
93.71,356.0,6916.0,13496.0,-175.0,178.95,-27.13,-29.53
93.78,400.0,4396.0,14548.0,-180.53,173.64,-16.81,-17.7
93.84,528.0,464.0,15152.0,-178.62,175.62,-1.75,-5.4
93.91,588.0,-2704.0,14872.0,-169.36,185.2,10.3,6.91
93.97,588.0,-5476.0,13996.0,-169.85,185.01,21.37,19.25
94.04,376.0,-8768.0,12576.0,-174.99,180.04,34.88,31.61
94.11,372.0,-10916.0,10836.0,-176.11,179.21,45.21,43.7
94.17,532.0,-13772.0,7668.0,-190.42,165.03,60.89,55.5
94.24,776.0,-15312.0,4628.0,-165.66,190.26,73.18,68.69
94.31,588.0,-16292.0,1404.0,-173.4,182.9,85.07,81.3
94.37,368.0,-16584.0,-1620.0,172.99,183.64,95.58,93.72
94.44,316.0,-15660.0,-6076.0,186.27,170.52,111.21,105.72
94.51,472.0,-14808.0,-8864.0,163.37,193.89,120.9,119.23
94.58,696.0,-13044.0,-11768.0,170.13,187.28,132.06,132.08
94.65,704.0,-10296.0,-14008.0,175.8,181.61,143.68,144.62
94.72,496.0,-6804.0,-16296.0,176.74,180.59,157.34,157.22
94.79,320.0,-4148.0,-17164.0,181.84,175.5,166.41,168.95
94.85,556.0,124.0,-17676.0,180.67,176.44,-179.6,-179.01
94.92,268.0,2740.0,-17648.0,183.44,173.63,-171.17,-167.54
94.99,252.0,6524.0,-16284.0,169.02,187.72,-158.17,-154.87
95.06,252.0,9516.0,-14932.0,174.02,182.44,-147.49,-142.75
95.13,248.0,11684.0,-12660.0,172.87,183.17,-137.3,-130.79
95.2,324.0,14036.0,-9148.0,181.06,174.4,-123.09,-118.97
95.27,404.0,16048.0,-5880.0,179.61,175.49,-110.12,-107.12
95.34,456.0,16240.0,-2172.0,185.21,169.62,-97.62,-95.56
95.41,252.0,16232.0,992.0,-172.17,182.48,-86.5,-83.6
95.48,412.0,15280.0,4320.0,-173.59,180.8,-74.21,-71.89
95.54,428.0,13724.0,7552.0,-178.78,175.41,-61.18,-60.17
95.61,172.0,11880.0,9940.0,-178.18,175.92,-50.08,-48.5
95.68,480.0,9000.0,11896.0,-185.6,168.37,-37.11,-37.13
95.75,364.0,5916.0,13864.0,-166.11,187.85,-23.11,-24.31
95.81,472.0,2768.0,14832.0,-168.31,185.76,-10.57,-11.64
95.88,364.0,-468.0,15020.0,-167.75,186.41,1.78,1.04
95.95,588.0,-4380.0,14420.0,-189.56,164.67,16.9,12.03
96.01,716.0,-7108.0,13276.0,-161.82,192.83,28.16,25.2
96.08,260.0,-10080.0,11692.0,-164.05,190.86,40.77,38.19
96.15,400.0,-12148.0,9360.0,-167.58,187.54,52.39,51.02
96.21,660.0,-14592.0,6676.0,-180.54,174.7,65.42,62.92
96.28,728.0,-15508.0,3036.0,-181.86,173.6,78.92,74.94
96.35,500.0,-16512.0,-380.0,-166.63,189.17,91.32,87.92
96.41,392.0,-16296.0,-3200.0,173.52,182.58,101.11,100.16
96.48,520.0,-15348.0,-7112.0,176.95,179.22,114.86,112.72
96.55,952.0,-13076.0,-10540.0,185.15,171.21,128.87,124.95
96.62,848.0,-11484.0,-13024.0,164.4,192.31,138.6,138.38
96.69,672.0,-8796.0,-15532.0,186.74,169.98,150.48,150.25
96.76,472.0,-5600.0,-16804.0,168.66,188.08,161.57,162.98
96.83,480.0,-2500.0,-17632.0,171.31,185.31,171.93,175.28
96.89,480.0,792.0,-17820.0,174.08,182.25,-177.46,-172.78
96.96,464.0,3948.0,-17272.0,185.49,170.42,-167.12,-161.76
97.03,352.0,8628.0,-15540.0,176.3,179.14,-150.96,-149.46
97.1,616.0,11756.0,-13696.0,168.5,186.81,-139.36,-136.76
97.17,344.0,13140.0,-10988.0,173.08,182.0,-129.9,-124.55
97.24,412.0,14548.0,-7980.0,167.51,187.1,-118.75,-112.14
97.31,480.0,15960.0,-4528.0,174.12,179.9,-105.84,-100.3
97.38,516.0,16288.0,-1036.0,-172.68,180.85,-93.64,-88.35
97.45,420.0,15688.0,2740.0,-189.95,163.12,-80.09,-77.5
97.52,412.0,14576.0,5580.0,-168.65,184.19,-69.05,-65.51
97.59,216.0,13096.0,8568.0,-168.85,183.67,-56.81,-53.52
97.65,388.0,10648.0,10832.0,-167.54,184.69,-44.51,-41.44
97.72,296.0,8308.0,13052.0,-178.7,173.26,-32.48,-29.88
97.79,368.0,4072.0,14524.0,-181.41,170.32,-15.66,-18.08
97.86,340.0,540.0,14984.0,-185.15,166.8,-2.06,-6.3
97.92,328.0,-2364.0,14956.0,-172.82,179.5,8.98,5.64
97.99,472.0,-5732.0,14108.0,-173.3,179.31,22.11,17.7
98.05,452.0,-7948.0,13160.0,-177.39,175.6,31.13,29.55
98.12,352.0,-11428.0,10112.0,-177.82,175.3,48.5,41.99
98.19,320.0,-13272.0,8164.0,-171.84,181.85,58.4,54.72
98.25,660.0,-15088.0,5164.0,-171.3,182.71,71.11,67.32
98.32,468.0,-16104.0,1852.0,-179.52,174.81,83.44,79.42
98.39,360.0,-16664.0,-1784.0,173.6,181.08,96.11,91.96
98.45,40.0,-16772.0,-2912.0,188.84,166.2,99.85,102.66
98.52,492.0,-14952.0,-8064.0,166.94,187.86,118.34,115.49
98.59,584.0,-13084.0,-11196.0,176.2,178.84,130.55,128.07
98.66,600.0,-10364.0,-14028.0,180.33,174.93,143.54,140.62
98.73,512.0,-8732.0,-15536.0,178.39,177.12,150.66,152.71
98.8,508.0,-5384.0,-16924.0,181.95,173.38,162.35,164.36
98.87,344.0,-1016.0,-17704.0,183.8,171.36,176.72,176.19
98.93,352.0,1748.0,-17656.0,172.68,182.52,-174.35,-171.62
99.0,344.0,5588.0,-16848.0,173.49,181.48,-161.65,-159.27
99.07,448.0,8084.0,-14980.0,180.21,174.54,-151.65,-147.61
99.14,448.0,12112.0,-12912.0,174.4,180.0,-136.83,-135.26
99.21,420.0,14580.0,-9528.0,186.39,167.87,-123.16,-123.36
99.28,480.0,15688.0,-6512.0,180.93,173.35,-112.54,-111.42
99.35,168.0,16160.0,-3712.0,186.82,167.36,-102.94,-100.12
99.42,212.0,16252.0,224.0,-177.4,176.53,-89.21,-87.97
99.49,436.0,15320.0,3540.0,-178.99,174.83,-76.99,-76.43
99.56,540.0,13988.0,6876.0,-185.49,168.28,-63.82,-64.93
99.62,436.0,12252.0,9412.0,-182.05,171.82,-52.47,-53.25
99.69,436.0,9468.0,11964.0,-170.35,183.59,-38.36,-40.58
99.76,332.0,6864.0,13592.0,-169.18,184.96,-26.79,-27.96
99.83,624.0,2816.0,14756.0,-173.01,181.23,-10.8,-15.19
99.89,304.0,-648.0,15272.0,-171.95,182.67,2.43,-2.28
99.96,580.0,-2764.0,14812.0,-192.19,162.84,10.57,8.44
100.02,344.0,-7112.0,13816.0,-161.35,193.86,27.24,21.77
100.09,412.0,-9352.0,12056.0,-168.08,187.6,37.8,34.8
100.16,700.0,-12376.0,9416.0,-167.96,187.98,52.74,48.06
100.23,612.0,-14444.0,6760.0,-183.95,172.4,64.92,60.27
100.29,340.0,-15560.0,3900.0,-168.79,187.97,75.93,73.29
100.36,564.0,-16312.0,208.0,-168.9,188.08,89.27,86.34
100.43,472.0,-16428.0,-3156.0,176.73,180.51,100.87,98.61
100.5,616.0,-15552.0,-6296.0,178.42,179.01,112.04,111.02
100.57,484.0,-13784.0,-10052.0,185.83,171.69,126.1,123.33
100.64,652.0,-11804.0,-12708.0,164.84,192.92,137.11,137.0
100.71,716.0,-8868.0,-15408.0,183.73,174.05,150.08,149.41
100.78,416.0,-6064.0,-16884.0,167.75,190.08,160.24,162.39
100.85,552.0,-2484.0,-17720.0,172.69,184.95,172.02,174.92
100.92,492.0,1284.0,-17716.0,172.83,184.55,-175.85,-172.62
100.99,428.0,4008.0,-17136.0,183.72,173.38,-166.84,-161.07
101.06,484.0,6644.0,-16452.0,189.23,167.36,-158.01,-150.2
101.13,564.0,11816.0,-13692.0,178.6,177.29,-139.21,-137.83
101.2,392.0,13696.0,-10964.0,173.31,182.46,-128.68,-125.16
101.27,316.0,15596.0,-7728.0,171.92,183.53,-116.36,-112.47
101.34,508.0,15792.0,-4424.0,169.73,185.38,-105.65,-100.06
101.42,476.0,16216.0,-628.0,-168.37,186.23,-92.22,-87.48
101.48,164.0,15892.0,3232.0,-184.72,169.47,-78.5,-76.16
101.55,216.0,14628.0,5368.0,-180.87,173.11,-69.85,-64.91
101.62,352.0,13196.0,7868.0,-188.51,165.03,-59.19,-54.22
101.69,332.0,10124.0,10964.0,-173.3,179.8,-42.72,-41.98
101.76,332.0,6640.0,13468.0,-172.24,180.79,-26.24,-29.03
101.83,452.0,3656.0,14652.0,-178.22,175.06,-14.01,-16.69
101.9,292.0,1072.0,15016.0,-176.49,177.03,-4.08,-4.5
101.96,364.0,-3292.0,14648.0,-184.95,168.6,12.67,7.35
102.03,556.0,-6888.0,13756.0,-164.02,190.0,26.6,20.7
102.1,364.0,-9776.0,11936.0,-167.97,186.56,39.32,33.95
102.16,476.0,-12508.0,9524.0,-169.5,185.5,52.71,47.16
102.23,452.0,-13976.0,6752.0,-186.17,169.32,64.21,59.21
102.3,688.0,-15404.0,3728.0,-166.65,189.27,76.4,72.48
102.37,712.0,-16352.0,400.0,-170.58,185.68,88.6,85.41
102.43,536.0,-16428.0,-2968.0,178.24,178.3,100.24,97.58
102.5,864.0,-15920.0,-5720.0,180.47,176.3,109.76,109.69
102.57,336.0,-15512.0,-8496.0,188.05,168.72,118.71,121.15
102.64,576.0,-12376.0,-12344.0,165.58,190.98,134.93,134.52
102.71,540.0,-8888.0,-15052.0,171.0,185.6,149.44,147.85
102.78,668.0,-6480.0,-16496.0,171.37,185.37,158.55,160.53
102.85,560.0,-3112.0,-17660.0,172.15,184.42,170.01,173.01
102.92,484.0,1176.0,-17820.0,171.47,184.83,-176.22,-174.34
102.99,312.0,4508.0,-17352.0,185.91,170.22,-165.44,-162.64
103.06,396.0,8680.0,-15696.0,180.35,175.53,-151.06,-150.31
103.13,596.0,11692.0,-13616.0,167.47,188.35,-139.35,-137.24
103.21,308.0,13584.0,-11176.0,172.72,182.91,-129.45,-124.7
103.28,372.0,15100.0,-7888.0,168.18,187.03,-117.58,-111.97
103.35,272.0,15892.0,-4756.0,172.37,182.33,-106.66,-99.92
103.42,244.0,16340.0,-836.0,-170.55,183.56,-92.93,-87.78
103.49,672.0,15816.0,3220.0,-189.63,164.01,-78.49,-76.76
103.56,256.0,14224.0,6096.0,-168.11,185.38,-66.8,-64.35
103.62,444.0,12928.0,8908.0,-166.53,186.74,-55.43,-51.98
103.69,388.0,10848.0,10764.0,-178.39,174.58,-45.22,-40.59
103.76,476.0,7068.0,13252.0,-177.69,174.86,-28.07,-28.37
103.83,360.0,4140.0,14444.0,-181.59,171.0,-15.99,-16.57
103.9,360.0,228.0,15144.0,-181.32,171.32,-0.86,-4.39
103.97,308.0,-3256.0,14788.0,-174.28,178.66,12.42,7.84
104.03,220.0,-5944.0,14092.0,-166.16,187.19,22.87,20.56
104.1,608.0,-9544.0,12076.0,-171.79,181.76,38.32,33.44
104.17,344.0,-11600.0,10796.0,-171.66,182.31,47.06,45.89
104.24,588.0,-13636.0,7324.0,-189.46,164.62,61.76,57.69
104.3,560.0,-15532.0,4216.0,-164.79,189.65,74.81,70.97
104.37,500.0,-16424.0,864.0,-172.02,182.75,86.99,83.71
104.44,656.0,-16648.0,-2032.0,176.99,178.06,96.96,95.7
104.51,376.0,-15784.0,-6460.0,182.34,172.83,112.26,107.9
104.57,660.0,-14348.0,-9364.0,186.26,169.28,123.13,120.08
104.64,384.0,-12488.0,-12120.0,166.82,188.99,134.14,133.35
104.72,440.0,-9656.0,-14616.0,170.95,184.92,146.55,146.45
104.79,352.0,-7024.0,-16068.0,173.24,182.64,156.39,158.87
104.86,352.0,-3792.0,-17656.0,176.79,178.87,167.88,170.96
104.92,636.0,-324.0,-17832.0,173.5,181.89,178.96,183.12
104.99,172.0,3772.0,-17312.0,190.2,164.83,-167.71,-165.8
105.06,388.0,6964.0,-16116.0,163.49,191.37,-156.63,-152.74
105.14,552.0,8968.0,-14316.0,168.17,186.35,-147.94,-140.49
105.21,456.0,12532.0,-11736.0,175.98,177.88,-133.12,-128.48
105.28,272.0,15068.0,-8196.0,171.45,181.99,-118.54,-115.76
105.35,284.0,16036.0,-4764.0,177.56,175.64,-106.55,-103.69
105.42,352.0,16316.0,-1748.0,176.03,176.91,-96.12,-91.72
105.49,520.0,15732.0,784.0,-193.5,159.05,-87.15,-81.52
105.56,340.0,14992.0,5228.0,-162.52,189.53,-70.78,-68.96
105.62,460.0,13080.0,8420.0,-167.36,184.53,-57.23,-56.41
105.69,432.0,10584.0,10756.0,-167.78,184.03,-44.54,-43.87
105.76,220.0,8120.0,12604.0,-180.41,171.34,-32.79,-32.03
105.83,188.0,4228.0,14308.0,-180.97,170.72,-16.46,-19.9
105.9,536.0,748.0,14880.0,-185.4,166.59,-2.88,-7.85
105.97,540.0,-2284.0,14816.0,-173.63,178.8,8.76,4.37
106.03,544.0,-5788.0,13840.0,-174.25,178.56,22.7,16.77
106.1,368.0,-8648.0,12516.0,-178.02,175.31,34.64,29.26
106.17,656.0,-11124.0,10324.0,-178.55,175.25,47.14,41.76
106.23,600.0,-13684.0,8176.0,-182.77,171.5,59.14,54.14
106.3,660.0,-15388.0,4836.0,-168.11,186.59,72.55,67.38
106.37,464.0,-16284.0,1720.0,-176.24,178.91,83.97,79.95
106.44,652.0,-16728.0,-2096.0,174.06,181.44,97.14,92.75
106.5,212.0,-15704.0,-5720.0,185.34,170.55,110.01,104.89
106.57,352.0,-15108.0,-8724.0,168.67,187.66,120.0,118.2
106.64,484.0,-12768.0,-11688.0,168.76,187.73,132.47,131.41
106.71,480.0,-10536.0,-14196.0,175.68,180.9,143.42,144.13
106.79,444.0,-6476.0,-16456.0,174.63,181.89,158.52,157.18
106.86,420.0,-3272.0,-17752.0,180.09,176.55,169.56,169.49
106.93,396.0,-468.0,-17836.0,177.91,178.74,178.5,181.57
106.99,588.0,2240.0,-17792.0,194.57,161.8,-172.82,-167.93
107.06,340.0,6740.0,-16436.0,166.69,189.25,-157.7,-154.89
107.14,264.0,11352.0,-13868.0,171.76,183.93,-140.7,-141.74
107.21,412.0,12376.0,-12200.0,178.86,176.92,-134.59,-129.65
107.28,320.0,14408.0,-9028.0,174.37,180.97,-122.07,-117.25
107.35,504.0,15416.0,-5636.0,182.66,172.26,-110.08,-105.63
107.42,564.0,16092.0,-2052.0,180.91,173.61,-97.27,-93.78
107.49,368.0,15948.0,1168.0,-187.66,166.54,-85.81,-82.74
107.56,152.0,14908.0,5060.0,-165.29,188.64,-71.25,-69.97
107.63,612.0,13360.0,8032.0,-169.53,184.28,-58.99,-57.52
107.7,332.0,10784.0,10880.0,-169.95,183.73,-44.75,-44.9
107.76,220.0,7840.0,13048.0,-183.18,170.52,-31.0,-32.8
107.83,280.0,4592.0,14208.0,-177.38,176.48,-17.91,-20.39
107.9,448.0,2636.0,14620.0,-189.85,164.23,-10.22,-9.25
107.97,184.0,-1688.0,14844.0,-174.21,179.79,6.49,3.29
108.04,452.0,-5776.0,14180.0,-173.05,181.23,22.16,15.9
108.1,556.0,-7596.0,12992.0,-179.72,175.1,30.31,28.01
108.17,652.0,-11940.0,10004.0,-178.53,176.49,50.04,41.04
108.24,488.0,-13184.0,8248.0,-176.37,179.44,57.97,53.85
108.31,512.0,-15244.0,5040.0,-169.91,186.26,71.7,67.01
108.37,548.0,-16140.0,1908.0,-178.98,177.59,83.26,79.47
108.44,824.0,-16568.0,-2316.0,179.73,177.17,97.96,92.15
108.51,456.0,-15936.0,-4812.0,187.15,170.27,106.8,104.0
108.58,500.0,-14984.0,-8484.0,164.38,193.28,119.52,117.7
108.65,600.0,-13120.0,-11420.0,171.62,186.2,131.04,130.71
108.72,424.0,-10556.0,-14024.0,175.9,181.94,143.03,143.53
108.79,456.0,-6732.0,-16476.0,177.05,180.75,157.78,156.49
108.86,108.0,-3856.0,-16692.0,181.67,176.24,166.99,168.58
108.93,148.0,212.0,-17460.0,179.22,178.55,-179.3,-179.01
109.0,668.0,4036.0,-17824.0,193.27,164.47,-167.24,-167.51
109.07,264.0,6860.0,-16296.0,167.75,190.02,-157.17,-154.41
109.14,332.0,11244.0,-14104.0,171.9,185.63,-141.44,-141.29
109.21,696.0,12772.0,-12176.0,178.6,178.91,-133.63,-129.01
109.28,236.0,14288.0,-9536.0,176.83,180.27,-123.72,-116.92
109.36,284.0,15588.0,-6212.0,181.95,174.54,-111.73,-105.38
109.43,320.0,16116.0,-2256.0,179.33,176.6,-97.97,-93.45
109.5,280.0,16084.0,1544.0,-175.75,179.78,-84.52,-81.5
109.56,428.0,15004.0,4760.0,-166.91,188.35,-72.4,-69.01
109.63,376.0,13340.0,7896.0,-172.59,182.37,-59.38,-56.82
109.7,380.0,10596.0,10920.0,-170.01,184.72,-44.14,-44.15
109.77,488.0,7272.0,13392.0,-186.24,168.49,-28.5,-31.98
109.84,380.0,5652.0,13832.0,-179.08,175.95,-22.23,-20.17
109.91,320.0,2296.0,14708.0,-191.05,163.8,-8.87,-8.93
109.97,296.0,-1820.0,14796.0,-175.14,179.72,7.01,3.45
110.04,556.0,-5712.0,13972.0,-175.11,180.06,22.24,15.98
110.11,272.0,-7196.0,13528.0,-180.18,175.54,28.01,27.85
110.17,612.0,-12092.0,10148.0,-179.81,175.92,50.0,40.86
110.24,484.0,-13296.0,8436.0,-171.8,184.73,57.61,53.98
110.31,444.0,-15064.0,5160.0,-170.34,186.51,71.09,67.07
110.38,304.0,-15924.0,1796.0,-178.36,178.84,83.57,79.63
110.45,652.0,-16696.0,-2012.0,174.9,182.64,96.87,92.5
110.51,740.0,-16416.0,-3944.0,188.18,169.74,103.51,103.91
110.58,700.0,-15036.0,-8552.0,164.73,193.16,119.63,117.63
110.65,616.0,-13228.0,-11384.0,172.81,185.25,130.72,130.56
110.72,556.0,-10616.0,-14168.0,176.92,181.15,143.16,143.36
110.8,560.0,-7300.0,-16048.0,178.04,180.02,155.54,156.05
110.86,564.0,-4280.0,-17144.0,183.03,174.98,165.98,167.99
110.93,620.0,-20.0,-17968.0,180.6,177.24,179.94,180.3
111.0,388.0,2424.0,-17516.0,182.47,175.33,-172.12,-168.33
111.07,360.0,6628.0,-16668.0,168.94,188.53,-158.31,-155.35
111.14,252.0,10072.0,-14692.0,172.67,184.53,-145.57,-142.66
111.22,364.0,12328.0,-11920.0,172.54,184.4,-134.04,-129.92
111.29,524.0,13968.0,-9776.0,179.7,176.88,-124.99,-118.08
111.36,436.0,16444.0,-5444.0,184.15,171.82,-108.32,-106.2
111.43,320.0,16792.0,-1916.0,180.21,175.56,-96.51,-94.08
111.5,364.0,16048.0,1224.0,-170.44,185.11,-85.64,-81.86
111.57,296.0,15112.0,4604.0,-169.54,185.68,-73.06,-69.57
111.63,212.0,13904.0,7448.0,-174.5,180.41,-61.82,-57.71
111.7,448.0,11196.0,10536.0,-172.45,182.1,-46.74,-45.39
111.77,688.0,7636.0,13220.0,-187.73,166.7,-30.01,-33.36
111.84,344.0,5348.0,14028.0,-177.6,177.12,-20.87,-21.17
111.91,368.0,2144.0,14816.0,-183.76,170.99,-8.23,-9.31
111.98,320.0,-1484.0,14956.0,-180.76,174.08,5.67,2.63
112.04,400.0,-4184.0,14512.0,-181.12,173.99,16.08,14.22
112.11,236.0,-7252.0,13672.0,-186.63,168.64,27.94,25.86
112.18,184.0,-10200.0,11660.0,-184.83,170.62,41.18,37.8
112.25,804.0,-13740.0,7912.0,-171.71,184.04,60.07,51.49
112.31,416.0,-15000.0,5640.0,-172.34,184.15,69.39,64.52
112.38,592.0,-16216.0,1844.0,-180.34,176.59,83.51,77.22
112.45,312.0,-16368.0,-1416.0,-177.73,179.75,94.94,89.97
112.52,1096.0,-16540.0,-4544.0,190.11,167.79,105.36,101.9
112.59,788.0,-14912.0,-8092.0,165.92,192.29,118.49,115.84
112.66,768.0,-13200.0,-11300.0,174.71,183.73,130.57,128.86
112.73,960.0,-9832.0,-14204.0,179.06,179.53,145.31,141.99
112.8,776.0,-8684.0,-15044.0,179.31,179.57,150.0,154.01
112.87,596.0,-4636.0,-17284.0,185.63,172.89,164.99,165.94
112.94,436.0,-1532.0,-17880.0,182.36,176.08,175.1,177.87
113.01,624.0,2280.0,-17764.0,174.59,183.61,-172.69,-169.71
113.08,344.0,6060.0,-16656.0,170.95,186.98,-160.01,-156.87
113.15,424.0,8020.0,-15556.0,175.95,181.71,-152.73,-144.98
113.22,540.0,11336.0,-12892.0,172.0,184.97,-138.67,-132.65
113.29,292.0,13996.0,-9068.0,182.25,174.18,-122.94,-120.45
113.36,492.0,16136.0,-5908.0,179.18,177.03,-110.11,-108.17
113.43,532.0,16288.0,-2416.0,183.51,172.53,-98.44,-96.24
113.5,396.0,16188.0,952.0,-173.32,182.52,-86.63,-84.04
113.57,360.0,15412.0,4668.0,-172.84,182.77,-73.15,-71.87
113.64,456.0,13792.0,7448.0,-176.8,178.7,-61.63,-59.84
113.71,164.0,12004.0,9824.0,-176.66,178.67,-50.7,-47.93
113.78,144.0,9364.0,11728.0,-190.76,164.34,-38.6,-36.88
113.84,412.0,5696.0,13760.0,-172.81,182.13,-22.49,-24.18
113.91,468.0,2068.0,15024.0,-168.05,187.04,-7.84,-10.97
113.98,392.0,-1012.0,14904.0,-169.7,185.66,3.88,1.82
114.05,712.0,-4112.0,14468.0,-183.05,172.49,15.87,13.39
114.11,364.0,-6744.0,13632.0,-180.01,175.76,26.32,25.38
114.18,272.0,-9668.0,11892.0,-185.44,170.4,39.11,37.12
114.25,444.0,-13048.0,8796.0,-173.86,182.16,56.02,50.15
114.32,492.0,-14776.0,5904.0,-175.72,180.81,68.22,63.0
114.38,504.0,-16236.0,2472.0,-184.68,172.31,81.34,75.37
114.45,592.0,-16188.0,-76.0,-175.7,181.8,90.27,87.93
114.52,412.0,-16120.0,-4280.0,171.76,185.95,104.87,100.78
114.59,520.0,-15596.0,-7588.0,171.11,186.95,115.94,114.05
114.66,488.0,-13572.0,-10588.0,178.69,179.54,127.96,126.72
114.73,320.0,-12204.0,-13032.0,180.57,177.77,136.88,139.04
114.8,572.0,-7340.0,-16260.0,184.68,173.47,155.7,151.8
114.87,528.0,-5936.0,-16948.0,172.48,186.01,160.7,164.32
114.94,432.0,-1320.0,-17844.0,177.95,180.22,175.77,176.76
115.01,428.0,2460.0,-17396.0,173.29,184.8,-171.95,-170.54
115.08,592.0,5528.0,-16852.0,174.88,183.08,-161.84,-158.05
115.15,500.0,9340.0,-14732.0,181.3,176.33,-147.63,-145.81
115.22,500.0,12652.0,-12588.0,175.44,182.02,-134.85,-133.14
115.29,196.0,13780.0,-9988.0,187.39,169.92,-125.94,-121.49
115.36,280.0,15644.0,-6404.0,180.05,176.87,-112.26,-109.34
115.43,300.0,16336.0,-3552.0,186.73,169.93,-102.27,-97.88
115.5,408.0,16356.0,216.0,-176.31,179.95,-89.24,-85.78
115.57,344.0,15464.0,3532.0,-177.35,178.6,-77.13,-74.1
115.64,344.0,13716.0,7304.0,-181.47,174.22,-61.96,-62.14
115.71,52.0,11344.0,10364.0,-181.94,173.76,-47.58,-49.93
115.78,396.0,9072.0,12040.0,-178.55,177.36,-37.0,-37.68
115.85,216.0,6236.0,13804.0,-165.08,190.89,-24.31,-24.56
115.91,508.0,3324.0,14588.0,-169.89,186.1,-12.84,-11.91
115.98,440.0,-632.0,14944.0,-168.2,187.71,2.42,1.12
116.05,508.0,-4280.0,14488.0,-188.57,167.45,16.46,12.38
116.11,596.0,-7088.0,13192.0,-168.54,187.84,28.25,25.41
116.18,564.0,-10120.0,11484.0,-172.34,184.29,41.39,38.24
116.25,720.0,-12520.0,9276.0,-175.42,181.48,53.47,51.0
116.32,544.0,-14636.0,6404.0,-180.48,176.63,66.37,63.3
116.39,676.0,-15944.0,3364.0,-182.68,174.7,78.09,75.42
116.45,340.0,-16464.0,16.0,-165.79,191.82,89.94,88.55
116.52,564.0,-16524.0,-3308.0,173.37,184.36,101.32,100.68
116.59,608.0,-15368.0,-7244.0,175.81,181.98,115.24,113.57
116.66,952.0,-13980.0,-10536.0,183.44,174.5,127.0,125.87
116.73,464.0,-11888.0,-12800.0,165.5,192.54,137.12,139.24
116.8,412.0,-10504.0,-14060.0,186.72,171.13,143.24,150.46
116.87,616.0,-5408.0,-16880.0,170.24,186.97,162.24,163.53
116.94,512.0,-2472.0,-17612.0,168.56,188.53,172.01,176.16
117.01,556.0,592.0,-17752.0,175.87,180.86,-178.09,-171.99
117.08,348.0,5256.0,-17056.0,179.36,176.83,-162.87,-160.03
117.15,540.0,8164.0,-15628.0,185.05,170.89,-152.42,-148.43
117.22,332.0,9264.0,-13856.0,180.26,175.32,-146.23,-137.17
117.29,276.0,12644.0,-11036.0,180.34,174.44,-131.12,-125.52
117.36,488.0,15128.0,-8016.0,173.74,180.54,-117.92,-113.15
117.44,344.0,15824.0,-3464.0,167.65,186.21,-102.35,-100.24
117.51,308.0,16132.0,-248.0,-169.23,184.44,-90.88,-87.6
117.57,492.0,15656.0,3160.0,-181.27,172.11,-78.59,-76.12
117.64,344.0,14340.0,6516.0,-183.2,169.96,-65.56,-64.58
117.71,528.0,12416.0,9196.0,-185.82,167.24,-53.47,-53.15
117.78,520.0,9492.0,11848.0,-173.85,179.19,-38.7,-40.62
117.85,272.0,6936.0,13448.0,-169.67,183.54,-27.28,-27.95
117.92,656.0,3224.0,14824.0,-174.77,178.5,-12.27,-15.33
117.99,356.0,-272.0,14896.0,-173.05,180.49,1.05,-2.51
118.05,504.0,-3300.0,14532.0,-193.37,160.48,12.79,8.5
118.12,552.0,-6868.0,13392.0,-162.99,191.23,27.15,21.86
118.19,404.0,-9968.0,12080.0,-169.23,185.46,39.53,34.95
118.25,456.0,-12620.0,9332.0,-169.57,185.51,53.52,48.13
118.32,588.0,-13892.0,6892.0,-183.97,171.59,63.61,60.15
118.39,280.0,-15812.0,3960.0,-170.11,185.75,75.94,73.05
118.46,744.0,-16432.0,468.0,-167.97,188.14,88.37,86.04
118.52,660.0,-16520.0,-2660.0,176.47,179.85,99.15,98.11
118.59,408.0,-15900.0,-5964.0,179.33,177.07,110.56,110.13
118.66,512.0,-14556.0,-9168.0,186.4,170.03,122.2,122.0
118.73,572.0,-12388.0,-12456.0,164.09,192.37,135.16,135.38
118.8,536.0,-9236.0,-14924.0,173.56,182.87,148.25,148.32
118.87,584.0,-6512.0,-16572.0,168.76,187.68,158.55,161.09
118.94,652.0,-3176.0,-17200.0,173.35,182.86,169.54,173.36
119.01,660.0,1388.0,-17788.0,172.26,183.61,-175.54,-174.03
119.08,516.0,3980.0,-17184.0,186.04,169.7,-166.96,-162.57
119.15,460.0,8452.0,-15704.0,172.36,182.99,-151.71,-149.85
119.22,372.0,11452.0,-13548.0,165.48,189.7,-139.79,-136.8
119.29,248.0,13132.0,-11040.0,171.59,183.33,-130.05,-124.35
119.37,368.0,14392.0,-8028.0,166.58,187.83,-119.15,-111.79
119.44,428.0,15764.0,-4736.0,172.0,181.75,-106.72,-99.8
119.51,292.0,16464.0,-780.0,-170.92,182.21,-92.71,-87.74
119.57,540.0,15916.0,3004.0,-188.19,164.5,-79.31,-76.78
119.64,124.0,14792.0,5944.0,-176.46,176.0,-68.11,-65.09
119.71,472.0,12636.0,8872.0,-178.15,174.05,-54.93,-53.35
119.78,460.0,10208.0,11240.0,-168.03,184.02,-42.25,-40.9
119.85,484.0,7104.0,13292.0,-174.49,177.45,-28.12,-28.5
119.92,392.0,4676.0,14328.0,-181.93,170.04,-18.07,-16.97
119.99,356.0,540.0,15056.0,-180.53,171.34,-2.05,-4.87
120.05,448.0,-3012.0,14860.0,-172.67,179.45,11.46,7.35
120.12,388.0,-5948.0,13840.0,-165.85,186.62,23.26,20.14
120.19,404.0,-9424.0,11920.0,-171.68,181.07,38.33,33.02
120.25,540.0,-11532.0,10444.0,-171.08,182.13,47.83,45.58
120.32,520.0,-13736.0,7576.0,-189.08,164.33,61.12,57.33
120.39,492.0,-15404.0,4288.0,-164.25,189.49,74.44,70.6
120.46,540.0,-16380.0,844.0,-172.23,181.85,87.05,83.33
120.52,496.0,-16604.0,-1548.0,177.23,177.17,95.33,95.13
120.59,684.0,-15756.0,-6320.0,182.51,171.91,111.86,107.3
120.66,824.0,-14220.0,-9384.0,181.75,173.07,123.42,119.81
120.73,576.0,-12540.0,-12076.0,166.44,188.69,133.92,133.06
120.8,612.0,-10144.0,-14404.0,171.37,183.84,144.84,145.94
120.87,676.0,-6900.0,-16156.0,174.08,181.02,156.87,158.55
120.94,516.0,-3412.0,-17584.0,177.34,177.62,169.02,170.72
121.01,308.0,-404.0,-17704.0,173.36,181.45,178.69,182.85
121.08,424.0,3212.0,-17308.0,190.18,164.27,-169.49,-166.27
121.15,468.0,6828.0,-16388.0,163.56,190.6,-157.38,-153.29
121.22,416.0,9504.0,-14492.0,168.53,185.27,-146.74,-140.91
121.29,204.0,12456.0,-12084.0,178.46,174.82,-134.13,-129.17
121.37,468.0,15080.0,-8448.0,172.18,180.65,-119.26,-116.53
121.44,720.0,15852.0,-5064.0,178.92,173.67,-107.72,-104.63
121.51,544.0,16096.0,-1728.0,175.96,176.36,-96.13,-92.59
121.58,300.0,16584.0,1552.0,-194.14,157.87,-84.65,-82.09
121.64,480.0,14952.0,5040.0,-163.38,188.39,-71.37,-69.41
121.71,360.0,13040.0,8220.0,-168.4,183.2,-57.77,-56.95
121.78,260.0,10608.0,11080.0,-168.85,182.68,-43.75,-44.35
121.85,188.0,8244.0,12964.0,-181.67,169.91,-32.45,-32.51
121.92,648.0,4340.0,14324.0,-179.38,172.2,-16.86,-20.27
121.99,276.0,1376.0,14924.0,-184.94,166.95,-5.27,-8.43
122.06,464.0,-2188.0,14640.0,-175.37,176.79,8.5,3.88
122.12,356.0,-6064.0,13992.0,-174.62,177.95,23.43,16.38
122.19,632.0,-8624.0,12512.0,-178.12,175.06,34.58,28.9
122.26,488.0,-11424.0,10444.0,-178.0,175.68,47.57,41.51
122.32,724.0,-13356.0,7896.0,-177.42,176.79,59.41,54.27
122.39,428.0,-14996.0,4912.0,-168.52,186.14,71.86,67.39
122.46,620.0,-16164.0,1704.0,-177.84,177.21,83.98,79.86
122.53,948.0,-16256.0,-2448.0,177.61,177.8,98.56,92.6
122.6,300.0,-16092.0,-4688.0,186.13,169.8,106.24,104.31
122.66,332.0,-14992.0,-8644.0,163.53,192.57,119.97,117.98
122.73,400.0,-13292.0,-11472.0,170.75,185.52,130.8,130.9
122.81,432.0,-10676.0,-14180.0,175.32,180.94,143.02,143.64
122.88,436.0,-6980.0,-16260.0,177.32,178.88,156.77,156.35
122.95,400.0,-4176.0,-17260.0,182.02,174.22,166.4,168.26
123.02,504.0,12.0,-17824.0,180.37,175.7,-179.96,-179.54
123.08,204.0,2428.0,-17424.0,185.5,170.54,-172.07,-168.31
123.16,548.0,6548.0,-16308.0,167.38,188.32,-158.12,-155.33
123.23,384.0,10688.0,-14364.0,172.92,182.54,-143.35,-142.51
123.3,304.0,13036.0,-11632.0,177.66,177.73,-131.74,-129.96
123.37,456.0,13696.0,-9852.0,178.26,176.97,-125.73,-118.2
123.44,264.0,16336.0,-5740.0,184.5,170.05,-109.36,-106.52
123.51,192.0,16476.0,-1684.0,180.81,173.49,-95.84,-94.43
123.58,340.0,15896.0,1400.0,-170.21,183.97,-84.97,-82.16
123.65,468.0,14940.0,4580.0,-169.49,184.44,-72.96,-69.9
123.72,260.0,13980.0,7520.0,-176.81,176.84,-61.72,-58.21
123.79,420.0,11448.0,10420.0,-174.37,178.98,-47.69,-46.13
123.86,580.0,7804.0,13124.0,-187.02,166.18,-30.74,-34.13
123.92,300.0,5328.0,14172.0,-177.91,175.6,-20.6,-21.92
123.99,432.0,1924.0,14800.0,-181.99,171.63,-7.41,-9.85
124.06,288.0,-1636.0,14976.0,-181.0,172.84,6.23,2.14
124.12,416.0,-4088.0,14572.0,-180.89,173.3,15.67,13.7
124.19,332.0,-7432.0,13324.0,-185.52,168.85,29.15,25.55
124.26,396.0,-10076.0,11732.0,-184.74,169.94,40.66,37.42
124.33,496.0,-13324.0,8116.0,-171.92,183.05,58.65,50.93
124.4,636.0,-15044.0,5560.0,-172.32,183.32,69.72,64.01
124.46,612.0,-16076.0,1896.0,-179.78,176.36,83.27,76.73
124.53,436.0,-16048.0,-1376.0,-177.98,178.73,94.9,89.47
124.6,920.0,-16088.0,-4920.0,190.63,166.55,107.0,101.56
124.67,372.0,-14944.0,-8120.0,167.6,190.06,118.52,115.21
124.74,572.0,-13296.0,-11256.0,173.84,184.1,130.25,128.29
124.81,372.0,-10644.0,-13916.0,178.31,179.81,142.59,141.19
124.88,372.0,-8768.0,-15364.0,180.76,177.47,150.29,153.37
124.95,740.0,-3892.0,-17308.0,185.46,172.51,167.33,165.61
125.02,440.0,-1964.0,-17828.0,183.08,175.03,173.71,177.36
125.09,256.0,1800.0,-17648.0,172.89,184.9,-174.18,-170.24
125.16,388.0,5928.0,-16884.0,171.85,185.59,-160.65,-157.5
125.23,492.0,7280.0,-15600.0,177.53,179.64,-154.98,-145.93
125.3,344.0,10892.0,-13348.0,171.27,185.09,-140.79,-133.72
125.37,356.0,14568.0,-8848.0,183.4,172.33,-121.27,-121.33
125.45,220.0,15152.0,-6320.0,177.63,178.1,-112.64,-109.16
125.52,340.0,16220.0,-2596.0,183.88,171.55,-99.09,-97.26
125.58,264.0,16256.0,860.0,-174.28,180.98,-86.97,-85.08
125.65,380.0,15336.0,4436.0,-173.85,181.25,-73.87,-72.96
125.72,328.0,13728.0,7444.0,-178.09,176.92,-61.53,-60.91
125.79,480.0,12092.0,9728.0,-177.8,177.16,-51.18,-49.03
125.86,224.0,9432.0,11900.0,-191.57,163.2,-38.4,-37.9
125.93,352.0,5716.0,13892.0,-171.11,183.61,-22.37,-24.98
126.0,588.0,2172.0,14980.0,-166.5,188.46,-8.25,-11.64
126.06,364.0,-580.0,14844.0,-167.81,187.44,2.24,1.15
126.13,352.0,-4744.0,14608.0,-185.18,170.17,17.99,12.73
126.19,384.0,-7020.0,13508.0,-179.5,176.3,27.46,24.94
126.26,532.0,-10424.0,11460.0,-186.2,169.83,42.29,37.05
126.33,488.0,-13168.0,9120.0,-173.39,183.09,55.29,50.24
126.4,676.0,-14532.0,5996.0,-176.24,180.69,67.58,63.0
126.47,512.0,-15724.0,3172.0,-183.46,173.86,78.59,75.16
126.53,860.0,-16712.0,456.0,-180.91,176.71,88.44,87.25
126.6,668.0,-16584.0,-3976.0,171.16,186.57,103.48,100.06
126.67,736.0,-15360.0,-7316.0,171.69,186.34,115.47,113.31
126.74,420.0,-13584.0,-10328.0,178.18,180.04,127.25,126.02
126.81,608.0,-11288.0,-13452.0,179.32,179.0,140.0,138.83
126.88,632.0,-7308.0,-16336.0,184.22,174.2,155.9,151.69
126.95,244.0,-6028.0,-16712.0,171.62,187.17,160.17,164.23
127.02,416.0,-1420.0,-17660.0,169.86,188.57,175.4,177.16
127.09,260.0,2136.0,-17604.0,172.63,185.65,-173.08,-170.26
127.16,376.0,5492.0,-16564.0,176.36,181.67,-161.66,-157.87
127.23,164.0,10756.0,-14328.0,182.72,174.98,-143.1,-145.22
127.3,268.0,12972.0,-12288.0,175.95,181.93,-133.45,-132.29
127.38,488.0,13360.0,-10508.0,188.05,169.73,-128.19,-121.0
127.45,480.0,15580.0,-6344.0,179.3,177.84,-112.16,-108.67
127.52,364.0,16172.0,-3680.0,184.44,172.38,-102.82,-97.19
127.59,452.0,16360.0,176.0,-179.41,176.91,-89.38,-85.37
127.66,364.0,15484.0,3324.0,-179.05,176.91,-77.88,-73.93
127.72,528.0,13864.0,7112.0,-183.32,172.29,-62.84,-62.19
127.79,572.0,11352.0,10452.0,-181.31,174.25,-47.36,-49.92
127.86,272.0,9152.0,12032.0,-176.05,179.73,-37.26,-37.38
127.93,340.0,6244.0,13864.0,-165.58,190.21,-24.25,-24.33
128.0,628.0,3136.0,14640.0,-169.34,186.45,-12.09,-11.6
128.07,436.0,-628.0,14892.0,-168.12,187.63,2.41,1.39
128.13,372.0,-3668.0,14868.0,-190.95,164.9,13.86,12.19
128.2,516.0,-6752.0,13196.0,-159.1,196.89,27.1,25.66
128.27,556.0,-10072.0,11576.0,-164.57,191.54,41.03,38.86
128.34,428.0,-12396.0,8848.0,-171.37,184.94,54.48,51.87
128.4,536.0,-14652.0,6412.0,-180.08,176.45,66.36,64.07
128.47,572.0,-15660.0,3100.0,-184.42,172.31,78.8,76.04
128.54,976.0,-16236.0,-176.0,-165.15,191.82,90.62,89.18
128.61,568.0,-16352.0,-3540.0,173.44,183.66,102.22,101.64
128.68,612.0,-15396.0,-7200.0,174.15,183.0,115.06,114.48
128.75,608.0,-14124.0,-10116.0,180.76,176.44,125.61,126.65
128.82,512.0,-11876.0,-12860.0,171.18,185.93,137.28,139.53
128.89,640.0,-9372.0,-14752.0,187.63,169.28,147.57,151.08
128.96,596.0,-5568.0,-16952.0,165.17,191.43,161.82,164.13
129.03,620.0,-2352.0,-17764.0,167.39,189.01,172.46,176.77
129.1,432.0,816.0,-17664.0,177.59,178.43,-177.36,-171.52
129.17,504.0,5004.0,-16764.0,180.35,175.15,-163.38,-159.77
129.24,472.0,6644.0,-15868.0,185.34,169.84,-157.28,-148.81
129.31,456.0,10000.0,-13720.0,181.11,173.31,-143.91,-137.37
129.38,152.0,13556.0,-10432.0,183.53,170.32,-127.58,-125.4
129.45,448.0,15096.0,-7600.0,173.31,180.35,-116.72,-112.92
129.52,512.0,16692.0,-3548.0,169.77,183.54,-102.0,-100.17
129.59,372.0,16404.0,-140.0,-177.65,175.5,-90.49,-88.05
129.66,556.0,15484.0,3076.0,-183.18,169.75,-78.76,-76.68
129.73,572.0,14952.0,4900.0,-189.69,163.05,-71.86,-66.21
129.8,232.0,12412.0,9440.0,-176.72,175.53,-52.75,-54.01
129.87,556.0,9392.0,12092.0,-171.89,180.46,-37.84,-41.21
129.94,264.0,6984.0,13428.0,-170.23,182.43,-27.48,-28.57
130.01,380.0,3032.0,14852.0,-173.79,178.96,-11.54,-15.77
130.07,384.0,-412.0,14960.0,-170.93,182.19,1.58,-2.73
130.14,540.0,-3004.0,14500.0,-193.28,160.22,11.7,8.17
130.21,680.0,-7132.0,13580.0,-162.33,191.48,27.71,21.64
130.27,380.0,-9876.0,11788.0,-166.6,187.74,39.96,34.93
130.34,572.0,-12584.0,9176.0,-168.89,185.89,53.9,48.19
130.41,528.0,-14172.0,6856.0,-182.93,172.35,64.18,60.3
130.48,460.0,-15512.0,4028.0,-173.59,182.03,75.44,72.9
130.54,736.0,-16268.0,292.0,-166.15,189.69,88.97,86.07
130.61,540.0,-16396.0,-2592.0,176.6,179.48,98.98,98.1
130.68,584.0,-15716.0,-6004.0,178.05,178.11,110.91,110.22
130.75,268.0,-13880.0,-10100.0,185.08,171.14,126.04,122.57
130.82,564.0,-12028.0,-12760.0,166.64,189.89,136.69,136.09
130.89,604.0,-9188.0,-15244.0,177.13,179.45,148.92,148.81
130.96,512.0,-6268.0,-16488.0,168.91,187.68,159.19,161.59
131.03,424.0,-2988.0,-17416.0,172.76,183.61,170.26,173.94
131.1,700.0,1076.0,-17720.0,172.06,183.99,-176.53,-173.6
131.17,472.0,4016.0,-17156.0,184.97,170.83,-166.83,-162.1
131.24,392.0,9064.0,-15600.0,179.32,176.06,-149.84,-149.67
131.31,284.0,12208.0,-13792.0,170.04,185.32,-138.49,-136.77
131.38,252.0,13160.0,-10896.0,170.82,184.38,-129.62,-124.2
131.45,364.0,15100.0,-8364.0,165.96,188.76,-118.98,-111.57
131.53,424.0,15768.0,-4616.0,170.48,183.58,-106.32,-99.45
131.6,412.0,16252.0,-872.0,-169.12,184.33,-93.07,-87.33
131.66,576.0,15916.0,2972.0,-189.33,163.61,-79.42,-76.49
131.73,332.0,14536.0,5880.0,-169.6,183.08,-67.98,-64.38
131.8,348.0,12420.0,8696.0,-166.84,185.52,-55.0,-52.03
131.87,412.0,10920.0,10716.0,-177.26,174.83,-45.54,-40.66
131.94,500.0,6956.0,13468.0,-176.65,175.01,-27.32,-28.34
132.01,480.0,4376.0,14340.0,-180.0,171.75,-16.97,-16.61
132.08,524.0,832.0,14936.0,-176.98,174.74,-3.19,-4.47
132.14,460.0,-2972.0,14952.0,-168.44,183.39,11.24,7.92
132.21,244.0,-5540.0,14192.0,-168.39,183.73,21.32,20.26
132.28,432.0,-8924.0,12388.0,-171.74,180.48,35.77,32.81
132.34,348.0,-11572.0,10436.0,-172.48,179.99,47.95,45.29
132.41,672.0,-13852.0,7456.0,-188.79,163.92,61.71,57.11
132.48,680.0,-15488.0,4368.0,-164.02,189.09,74.25,70.36
132.55,500.0,-16492.0,876.0,-172.82,180.63,86.96,83.04
132.61,480.0,-16520.0,-1688.0,178.68,175.11,95.83,94.8
132.68,464.0,-15868.0,-6408.0,182.69,171.19,111.99,106.98
132.75,852.0,-14216.0,-9580.0,184.47,169.84,123.98,119.38
132.82,556.0,-12544.0,-11856.0,167.24,187.47,133.38,132.55
132.89,776.0,-9860.0,-14556.0,171.27,183.51,145.89,145.58
132.96,564.0,-7048.0,-16232.0,173.58,181.23,156.53,158.03
133.03,264.0,-3444.0,-17468.0,179.1,175.58,168.85,170.11
133.1,404.0,36.0,-17680.0,176.54,178.03,-179.88,-177.74
133.17,712.0,3904.0,-17124.0,190.15,164.24,-167.16,-166.55
133.24,532.0,6792.0,-16084.0,162.98,191.35,-157.11,-153.46
133.31,464.0,9160.0,-14716.0,168.18,185.82,-148.1,-141.18
133.38,352.0,12052.0,-12584.0,177.4,175.99,-136.24,-129.56
133.45,280.0,15052.0,-8684.0,173.56,179.24,-119.98,-117.05
133.52,264.0,15796.0,-5340.0,178.66,173.88,-108.68,-105.19
133.6,224.0,15952.0,-1944.0,175.69,176.53,-96.95,-93.17
133.66,832.0,16024.0,2108.0,-184.95,166.94,-82.51,-81.81
133.73,576.0,14884.0,4896.0,-163.97,187.86,-71.79,-69.25
133.8,316.0,13032.0,8036.0,-169.18,182.43,-58.34,-56.91
133.87,440.0,10544.0,10988.0,-168.46,183.02,-43.82,-44.3
133.94,296.0,8012.0,13052.0,-182.34,169.18,-31.54,-32.41
134.01,368.0,4736.0,14316.0,-178.05,173.55,-18.31,-20.26
134.08,488.0,1976.0,14960.0,-185.71,166.06,-7.52,-8.72
134.14,448.0,-2168.0,14844.0,-175.92,175.95,8.31,3.55
134.21,500.0,-5984.0,14132.0,-176.34,175.95,22.95,15.92
134.28,424.0,-8724.0,12512.0,-180.92,171.99,34.89,28.34
134.34,380.0,-12048.0,10016.0,-180.62,172.86,50.26,41.13
134.41,616.0,-13172.0,8260.0,-173.33,180.94,57.91,54.02
134.48,632.0,-14984.0,5100.0,-169.22,185.39,71.2,67.05
134.55,480.0,-16052.0,1948.0,-176.98,177.99,83.08,79.51
134.62,680.0,-16368.0,-2264.0,175.38,179.9,97.88,92.34
134.68,700.0,-16168.0,-4036.0,187.95,167.81,104.02,103.71
134.75,544.0,-14948.0,-8240.0,163.93,191.86,118.87,117.28
134.82,488.0,-13292.0,-11132.0,173.89,182.04,129.95,129.96
134.89,448.0,-9476.0,-14640.0,178.26,177.67,147.09,143.04
134.96,324.0,-8356.0,-15504.0,175.3,180.99,151.68,155.22
135.03,456.0,-4528.0,-17036.0,180.58,175.39,165.12,167.19
135.1,344.0,188.0,-17764.0,180.63,175.16,-179.39,-180.47
135.17,704.0,2848.0,-17680.0,179.49,176.4,-170.85,-168.47
135.24,376.0,6248.0,-16556.0,168.69,186.99,-159.32,-155.69
135.31,392.0,9684.0,-15088.0,173.91,181.44,-147.31,-143.35
135.38,348.0,11872.0,-12180.0,171.09,183.91,-135.73,-130.93
135.46,292.0,13832.0,-9524.0,180.5,174.08,-124.55,-119.11
135.53,144.0,15652.0,-5608.0,178.91,175.18,-109.71,-107.05
135.6,312.0,16636.0,-2196.0,181.55,172.3,-97.52,-95.15
135.67,484.0,15860.0,784.0,-172.18,181.46,-87.17,-83.2
135.73,240.0,15204.0,4652.0,-171.14,182.15,-72.99,-71.14
135.8,384.0,13884.0,7412.0,-174.17,178.96,-61.9,-59.21
135.87,456.0,11700.0,9748.0,-174.99,177.89,-50.2,-47.36
135.94,188.0,9456.0,11428.0,-189.93,162.7,-39.61,-36.58
136.01,380.0,5788.0,13884.0,-173.32,179.05,-22.63,-24.12
136.08,360.0,1956.0,14836.0,-170.59,181.91,-7.51,-11.18
136.14,316.0,-1160.0,14916.0,-175.73,177.1,4.45,1.18
136.21,636.0,-4732.0,14424.0,-183.53,169.58,18.16,12.9
136.28,508.0,-7096.0,13384.0,-180.69,172.87,27.93,24.95
136.35,564.0,-10048.0,11908.0,-186.36,167.47,40.16,36.68
136.41,300.0,-13116.0,8772.0,-170.32,183.81,56.23,50.05
136.48,712.0,-14644.0,5612.0,-173.95,180.72,69.03,63.0
136.55,600.0,-16044.0,2456.0,-180.89,174.3,81.3,75.48
136.62,476.0,-16280.0,-944.0,-179.45,176.25,93.32,88.04
136.68,628.0,-16280.0,-4552.0,176.42,179.74,105.62,100.76
136.75,552.0,-14992.0,-7640.0,169.73,186.86,117.0,114.15
136.82,564.0,-13300.0,-10680.0,178.94,177.9,128.76,126.79
136.89,772.0,-12008.0,-12872.0,181.46,175.55,136.99,138.97
136.97,760.0,-7100.0,-16400.0,178.68,178.16,156.59,152.13
137.04,728.0,-5120.0,-16988.0,176.05,181.18,163.23,164.59
137.1,352.0,-3196.0,-17504.0,185.15,171.96,169.65,175.81
137.17,460.0,2372.0,-17728.0,173.52,183.04,-172.38,-171.53
137.25,420.0,5624.0,-16828.0,173.59,182.9,-161.52,-158.91
137.32,424.0,8300.0,-14944.0,179.53,176.73,-150.95,-146.91
137.39,280.0,11628.0,-13176.0,173.96,181.94,-138.57,-134.54
137.46,588.0,14372.0,-9760.0,186.11,169.43,-124.18,-122.57
137.53,604.0,15708.0,-6796.0,180.57,174.82,-113.4,-110.56
137.6,600.0,15964.0,-3460.0,187.76,167.38,-102.23,-99.11
137.67,668.0,16208.0,616.0,-178.11,176.76,-87.82,-86.91
137.74,396.0,15384.0,3616.0,-177.31,177.47,-76.77,-75.14
137.81,396.0,13564.0,7360.0,-182.37,172.26,-61.52,-63.12
137.88,236.0,11064.0,10608.0,-179.46,175.32,-46.21,-50.55
137.94,416.0,9212.0,11988.0,-179.37,175.79,-37.54,-38.22
138.01,580.0,5940.0,13748.0,-164.78,190.45,-23.37,-24.96
138.08,280.0,2916.0,14788.0,-168.19,187.17,-11.15,-12.02
138.15,496.0,-616.0,15148.0,-172.13,183.31,2.33,0.75
138.21,508.0,-4544.0,14536.0,-188.35,167.23,17.36,12.14
138.28,460.0,-7200.0,13308.0,-169.48,186.56,28.41,25.14
138.35,620.0,-10012.0,11492.0,-173.57,182.75,41.06,37.87
138.42,400.0,-12580.0,9108.0,-176.81,179.79,54.1,50.63
138.49,440.0,-14396.0,6444.0,-179.77,177.13,65.89,62.96
138.55,468.0,-16140.0,3376.0,-185.67,171.49,78.19,74.94
138.62,528.0,-16472.0,-228.0,-164.71,192.73,90.79,88.26
138.69,652.0,-16172.0,-3552.0,171.66,186.0,102.39,100.99
138.76,440.0,-15540.0,-7180.0,175.05,182.74,114.8,113.85
138.83,388.0,-13972.0,-10460.0,178.73,179.13,126.82,126.38
138.9,456.0,-11216.0,-13496.0,174.15,183.75,140.27,139.49
138.97,288.0,-9032.0,-14944.0,185.14,172.84,148.85,151.41
139.04,520.0,-5756.0,-16952.0,172.59,185.16,161.25,163.98
139.11,560.0,-2504.0,-17832.0,167.1,190.41,172.01,176.67
139.18,460.0,744.0,-17660.0,176.21,180.88,-177.59,-171.48
139.25,440.0,5356.0,-16996.0,179.32,177.23,-162.51,-159.51
139.32,568.0,7180.0,-15684.0,184.79,171.5,-155.4,-148.26
139.39,464.0,9656.0,-13884.0,179.73,175.93,-145.18,-136.86
139.46,540.0,13964.0,-10544.0,185.31,169.61,-127.06,-125.1
139.53,320.0,15384.0,-7552.0,174.61,180.13,-116.15,-112.61
139.6,296.0,16724.0,-3336.0,170.02,184.41,-101.28,-99.75
139.67,472.0,16488.0,-312.0,-171.95,182.34,-91.08,-87.5
139.74,508.0,15528.0,3208.0,-181.5,172.47,-78.33,-75.98
139.81,296.0,14280.0,5992.0,-184.9,168.86,-67.24,-64.71
139.88,476.0,12228.0,9136.0,-186.21,167.33,-53.24,-53.24
139.95,444.0,9412.0,11700.0,-173.98,179.55,-38.81,-40.69
140.02,308.0,7000.0,13604.0,-168.95,184.76,-27.23,-27.93
140.09,420.0,3100.0,14580.0,-174.27,179.49,-12.0,-15.22
140.15,444.0,-296.0,14928.0,-172.34,181.71,1.14,-2.33
140.22,544.0,-3316.0,14604.0,-193.25,161.1,12.79,8.7
140.29,492.0,-6852.0,13440.0,-163.02,191.7,27.01,22.04
140.35,404.0,-10036.0,11848.0,-168.3,186.85,40.27,35.27
140.42,780.0,-12788.0,9304.0,-168.53,187.05,53.96,48.75
140.49,476.0,-14360.0,6916.0,-183.15,172.89,64.28,60.84
140.56,700.0,-15668.0,3924.0,-171.52,184.82,75.94,73.61
140.62,720.0,-16404.0,416.0,-166.83,189.71,88.55,86.66
140.69,592.0,-16388.0,-2768.0,176.13,180.57,99.59,98.76
140.76,520.0,-15608.0,-6324.0,178.32,178.46,112.06,110.95
140.83,296.0,-13692.0,-9948.0,185.85,171.03,126.0,123.21
140.9,492.0,-12164.0,-12520.0,163.34,193.78,135.83,136.62
140.97,488.0,-9092.0,-14944.0,174.95,182.1,148.68,149.42
141.04,392.0,-6364.0,-16612.0,168.78,188.2,159.04,162.15
141.11,416.0,-2896.0,-17604.0,173.57,183.14,170.66,174.45
141.18,340.0,1224.0,-18032.0,172.11,184.26,-176.12,-173.08
141.25,436.0,3820.0,-17260.0,184.66,171.45,-167.52,-161.67
141.32,472.0,8952.0,-15616.0,182.55,173.04,-150.18,-149.51
141.39,368.0,11900.0,-13404.0,169.43,186.1,-138.4,-136.57
141.46,320.0,13328.0,-10848.0,170.79,184.57,-129.14,-123.97
141.53,500.0,14500.0,-8096.0,165.98,188.93,-119.18,-111.38
141.61,500.0,15496.0,-4860.0,171.15,183.05,-107.41,-99.44
141.68,436.0,16272.0,-760.0,-169.91,183.59,-92.67,-87.32
141.74,436.0,15948.0,3040.0,-188.09,164.92,-79.21,-76.37
141.81,384.0,14912.0,5980.0,-174.69,178.07,-68.15,-64.6
141.88,476.0,12352.0,9056.0,-177.08,175.36,-53.75,-52.71
141.95,592.0,10188.0,11184.0,-167.6,184.76,-42.33,-40.29
142.02,504.0,7124.0,13208.0,-174.56,177.61,-28.34,-27.97
142.09,328.0,4492.0,14320.0,-163.84,188.3,-17.42,-15.32
142.16,544.0,1380.0,15000.0,-131.05,220.9,-5.26,-0.73
142.22,456.0,-1224.0,14864.0,-119.11,232.45,4.71,13.59
142.29,452.0,-3328.0,14572.0,-106.14,244.64,12.86,27.97
142.36,412.0,-4996.0,14308.0,-73.94,275.52,19.25,43.57
142.42,536.0,-6268.0,13680.0,-61.98,285.35,24.62,58.37
142.49,484.0,-7208.0,13424.0,-46.32,298.08,28.23,72.72
142.56,500.0,-7792.0,13064.0,-27.47,313.06,30.81,86.68
142.62,592.0,-8248.0,12716.0,13.04,322.65,32.97,99.93
142.69,452.0,-8588.0,12676.0,-1.37,331.26,34.12,112.1
142.75,404.0,-8420.0,12696.0,-1.91,325.06,33.55,122.83
142.82,576.0,-8404.0,12768.0,-1.44,316.88,33.35,131.91
142.89,264.0,-8396.0,12816.0,-1.65,308.59,33.23,139.51
142.95,488.0,-8280.0,12760.0,-1.71,299.48,32.98,145.73
143.02,576.0,-8500.0,12932.0,-1.44,289.48,33.32,150.73
143.09,400.0,-8480.0,12716.0,-1.42,279.33,33.7,154.63
143.15,484.0,-8416.0,12736.0,-1.63,269.11,33.46,157.48
143.22,448.0,-8356.0,12788.0,-1.63,258.4,33.16,159.36
143.29,324.0,-8452.0,12720.0,-1.74,247.62,33.6,160.45
143.35,452.0,-8336.0,12780.0,-1.66,236.59,33.12,160.72
143.42,536.0,-8316.0,12700.0,-1.67,225.58,33.22,160.32
143.49,464.0,-8268.0,12624.0,-1.63,214.57,33.22,159.31
143.55,576.0,-8392.0,12684.0,-1.67,203.72,33.49,157.8
143.62,360.0,-8304.0,12760.0,-1.64,192.96,33.06,155.76
143.69,372.0,-8212.0,12548.0,-1.71,182.43,33.2,153.34
143.75,572.0,-8408.0,12620.0,-1.62,171.96,33.67,150.61
143.82,308.0,-8224.0,12500.0,-1.58,161.82,33.34,147.53
143.88,500.0,-8324.0,12724.0,-1.55,151.93,33.19,144.19
143.95,444.0,-8404.0,12696.0,-1.56,142.35,33.5,140.67
144.02,424.0,-8336.0,12668.0,-1.69,133.23,33.35,136.98
144.08,452.0,-8272.0,12744.0,-1.56,124.14,32.99,133.1
144.15,516.0,-8320.0,12756.0,-1.47,115.4,33.11,129.14
144.22,532.0,-8300.0,12784.0,-1.74,107.38,32.99,125.13
144.28,464.0,-8316.0,12600.0,-1.58,99.26,33.42,121.11
144.35,544.0,-8280.0,12684.0,-1.49,91.59,33.14,116.96
144.41,396.0,-8440.0,12640.0,-1.64,84.52,33.73,112.93
144.48,352.0,-8304.0,12736.0,-1.67,77.73,33.1,108.88
144.55,396.0,-8324.0,12832.0,-1.66,71.21,32.97,104.88
144.61,456.0,-8300.0,12696.0,-1.43,64.8,33.17,100.97
144.68,528.0,-8440.0,12844.0,-1.69,59.24,33.31,97.17
144.74,352.0,-8436.0,13276.0,-1.74,53.81,32.43,93.33
144.8,576.0,-8216.0,12536.0,1.53,48.39,33.24,89.7
144.87,436.0,-8336.0,12784.0,1.66,43.71,33.11,86.15
144.93,516.0,-8412.0,12712.0,1.69,39.22,33.49,82.78
144.99,552.0,-8340.0,12788.0,1.48,34.83,33.11,79.49
145.06,548.0,-8288.0,12668.0,1.66,31.07,33.19,76.36
145.12,448.0,-8340.0,12752.0,1.57,27.34,33.19,73.35
145.18,432.0,-8292.0,12628.0,1.73,24.11,33.29,70.5
145.25,460.0,-8312.0,12744.0,1.58,20.82,33.11,67.75
145.31,624.0,-8300.0,12868.0,1.69,18.01,32.82,65.1
145.37,376.0,-8356.0,12820.0,1.52,15.12,33.1,62.6
145.44,448.0,-8336.0,12684.0,1.59,12.71,33.31,60.25
145.5,520.0,-8236.0,12604.0,1.55,10.4,33.16,58.0
145.56,520.0,-8400.0,12852.0,1.59,8.35,33.17,55.88
145.63,540.0,-8384.0,12512.0,1.6,6.45,33.83,53.93
145.69,480.0,-8308.0,12620.0,1.46,4.63,33.36,52.05
145.75,324.0,-8348.0,12760.0,1.61,3.21,33.19,50.26
145.81,600.0,-8396.0,12760.0,1.63,1.81,33.34,48.6
145.87,480.0,-8404.0,12960.0,1.56,0.46,32.96,47.01
145.94,556.0,-8380.0,12776.0,1.66,-0.61,33.26,45.55
146.0,528.0,-8316.0,12784.0,1.47,-1.84,33.04,44.15
146.06,416.0,-8324.0,12788.0,1.62,-2.61,33.06,42.85
146.13,528.0,-8444.0,12708.0,1.6,-3.44,33.6,41.69
146.19,516.0,-8344.0,12700.0,1.68,-4.05,33.31,40.59
146.25,472.0,-8332.0,12824.0,1.59,-4.75,33.01,39.53
146.31,492.0,-8312.0,12752.0,1.51,-5.37,33.1,38.56
146.38,452.0,-8228.0,12524.0,1.56,-5.77,33.3,37.68
146.44,500.0,-8368.0,12764.0,1.6,-6.1,33.25,36.88
146.5,548.0,-8356.0,12744.0,1.51,-6.5,33.25,36.13
146.57,416.0,-8332.0,12820.0,1.47,-6.79,33.02,35.42
146.63,540.0,-8444.0,12740.0,1.63,-6.82,33.54,34.84
146.69,508.0,-8340.0,12756.0,1.47,-7.1,33.18,34.27
146.76,628.0,-8200.0,12708.0,1.52,-7.14,32.83,33.71
146.82,388.0,-8300.0,12616.0,1.79,-6.94,33.34,33.28
146.88,448.0,-8388.0,12644.0,1.62,-7.11,33.56,32.91
146.95,464.0,-8348.0,12760.0,1.59,-7.08,33.19,32.54
147.01,432.0,-8328.0,12728.0,1.54,-7.07,33.2,32.21
147.07,416.0,-8240.0,12688.0,1.54,-6.99,33.0,31.89
147.14,476.0,-8260.0,12668.0,1.48,-6.96,33.11,31.63
147.2,500.0,-8244.0,12648.0,1.6,-6.71,33.1,31.4
147.26,604.0,-8172.0,12588.0,1.76,-6.42,32.99,31.2
147.33,432.0,-8312.0,12772.0,1.72,-6.3,33.06,31.04
147.39,408.0,-8320.0,12788.0,1.65,-6.2,33.05,30.9
147.45,388.0,-8324.0,12868.0,1.6,-6.08,32.9,30.76
147.52,548.0,-8264.0,12700.0,1.5,-5.99,33.05,30.66
147.58,432.0,-8420.0,12852.0,1.49,-5.8,33.23,30.6
147.64,400.0,-8440.0,12668.0,1.62,-5.45,33.67,30.62
147.71,424.0,-8324.0,12776.0,1.64,-5.17,33.09,30.58
147.77,552.0,-8280.0,12704.0,1.48,-5.12,33.09,30.55
147.83,516.0,-8192.0,12748.0,1.55,-4.84,32.73,30.51
147.89,452.0,-8252.0,12704.0,1.67,-4.53,33.01,30.51
147.96,500.0,-8388.0,12764.0,1.69,-4.3,33.31,30.56
148.02,508.0,-8372.0,12708.0,1.61,-4.15,33.38,30.62
148.08,500.0,-8388.0,12740.0,1.56,-3.97,33.36,30.68
148.15,436.0,-8344.0,12692.0,1.73,-3.58,33.32,30.75
148.21,480.0,-8524.0,12856.0,1.59,-3.5,33.55,30.85
148.27,520.0,-8292.0,12848.0,1.5,-3.36,32.84,30.86
148.34,412.0,-8272.0,12832.0,1.57,-3.13,32.81,30.89
148.4,436.0,-8412.0,12752.0,1.5,-3.03,33.41,30.98
148.46,532.0,-8320.0,12824.0,1.66,-2.68,32.97,31.04
148.53,564.0,-8296.0,12748.0,1.69,-2.48,33.05,31.11
148.59,416.0,-8260.0,12752.0,1.51,-2.5,32.93,31.16
148.65,408.0,-8204.0,12640.0,1.57,-2.29,32.99,31.22
148.72,504.0,-8396.0,12692.0,1.63,-2.08,33.49,31.34
148.78,564.0,-8276.0,12596.0,1.58,-1.95,33.31,31.43
148.84,512.0,-8396.0,12792.0,1.5,-1.87,33.28,31.52
148.91,488.0,-8340.0,12776.0,1.61,-1.61,33.14,31.6
148.97,456.0,-8280.0,12716.0,1.56,-1.53,33.07,31.66
149.03,420.0,-8372.0,12716.0,1.52,-1.46,33.36,31.76
149.1,528.0,-8372.0,12784.0,1.68,-1.16,33.22,31.85
149.16,492.0,-8400.0,12736.0,1.53,-1.19,33.41,31.94
149.22,584.0,-8368.0,12668.0,1.59,-1.02,33.45,32.04
149.28,472.0,-8336.0,12876.0,1.62,-0.87,32.92,32.08
149.35,484.0,-8264.0,12764.0,1.59,-0.83,32.92,32.12
149.41,428.0,-8360.0,12744.0,1.5,-0.85,33.26,32.19
149.47,396.0,-8428.0,12624.0,1.58,-0.68,33.73,32.32
149.54,604.0,-8708.0,12792.0,1.85,-0.29,34.24,32.5
149.6,508.0,-8616.0,12400.0,1.51,-0.48,34.79,32.71
149.66,420.0,-8396.0,12848.0,1.58,-0.24,33.16,32.75
149.73,468.0,-8296.0,12788.0,1.62,-0.17,32.97,32.76
149.79,520.0,-8324.0,12712.0,1.51,-0.26,33.22,32.79
149.85,396.0,-8368.0,12780.0,1.51,-0.22,33.22,32.83
149.92,384.0,-8332.0,12892.0,1.56,-0.14,32.87,32.82
149.98,392.0,-8412.0,12944.0,1.51,-0.18,33.02,32.83
150.04,492.0,-8376.0,12824.0,1.62,-0.06,33.15,32.86
150.11,476.0,-8332.0,12824.0,1.76,0.1,33.01,32.88
150.17,424.0,-8312.0,12680.0,1.56,-0.09,33.25,32.92
150.23,520.0,-8140.0,12688.0,1.63,0.02,32.68,32.89
150.29,388.0,-8348.0,12644.0,1.6,-0.04,33.43,32.95
150.36,460.0,-8368.0,12656.0,1.68,0.09,33.47,33.01
150.42,544.0,-8280.0,12744.0,1.68,0.13,33.01,33.01
150.48,460.0,-8308.0,12800.0,1.6,0.05,32.99,33.01
150.54,580.0,-8204.0,12720.0,1.44,-0.12,32.82,32.99
150.61,500.0,-8268.0,12780.0,1.6,0.03,32.9,32.98
